Timestamp, AccelerationX, AccelerationY, AccelerationZ, GyroX, GyroY, GyroZ, MagnetometerX, MagnetometerY, MagnetometerZ, DMUserAccelerationX, DMUserAccelerationY, DMUserAccelerationZ, DMGravityX, DMGravityY, DMGravityZ, DMMagX, DMMagY, DMMagZ, DMAttitudeX, DMAttitudeY, DMAttitudeZ, DMAttitudeW 
424169228.659671, 0.39645386, -0.50032043, -0.70300293, 0.02441160, 0.15593341, 0.13437618, -172.64413452, 147.66291809, 234.48071289, 0.27097502, -0.54543656, -0.79314029, 0.13222322, 0.04771014, 0.00870118, 0.00000000, 0.00000000, 0.00000000, 0.32061200, -0.02525503, -0.48657541, 0.81228966
424169228.677210, 0.34040833, -0.50863647, -0.64079285, -0.12642665, 0.12112882, 0.03445518, -172.13082886, 148.51843262, 235.31278992, 0.27177945, -0.54685616, -0.79188651, 0.12467440, 0.04653572, 0.08888359, 0.00000000, 0.00000000, 0.00000000, 0.32162591, -0.02476918, -0.48510311, 0.81278425
424169228.691714, 0.34040833, -0.50863647, -0.64079285, -0.21569181, 0.26125530, -0.03629729, -173.67076111, 148.68952942, 235.81204224, 0.27265126, -0.54609460, -0.79211235, 0.06775706, 0.03745813, 0.15131950, 0.00000000, 0.00000000, 0.00000000, 0.32152269, -0.02381142, -0.48423683, 0.81337006
424169228.708859, 0.40637207, -0.48590088, -0.76013184, -0.18180921, 0.30984601, -0.07703193, -174.52629089, 149.20285034, 233.64862061, 0.27562454, -0.54338622, -0.79294550, 0.10169479, 0.03995297, 0.11649285, 0.00000000, 0.00000000, 0.00000000, 0.32104047, -0.02145408, -0.48366241, 0.81396770
424169228.723250, 0.42507935, -0.48278809, -0.85311890, -0.09742935, 0.28236938, -0.10454345, -175.21069336, 149.20285034, 235.31278992, 0.27972758, -0.54066926, -0.79336578, 0.12617147, 0.04169158, -0.00332612, 0.00000000, 0.00000000, 0.00000000, 0.32088769, -0.01866008, -0.48322135, 0.81435865
424169228.739378, 0.49310303, -0.49330139, -0.85235596, 0.04039057, 0.29215969, -0.09828636, -175.21069336, 149.20285034, 235.31278992, 0.28400335, -0.53855866, -0.79328221, 0.16927424, 0.05200167, -0.06227810, 0.00000000, 0.00000000, 0.00000000, 0.32109196, -0.01608895, -0.48305483, 0.81443178
424169228.755895, 0.50347900, -0.47721863, -0.76339722, 0.14247992, 0.28129399, -0.06597742, -175.03959656, 150.05836487, 235.47920227, 0.28848380, -0.53802025, -0.79202986, 0.20461924, 0.04471885, -0.06032608, 0.00000000, 0.00000000, 0.00000000, 0.32216697, -0.01391047, -0.48287736, 0.81415256
424169228.770873, 0.50347900, -0.47721863, -0.76339722, 0.10391042, 0.22909151, -0.04746552, -174.18408203, 150.57168579, 234.97996521, 0.29262555, -0.53904045, -0.78981370, 0.21085344, 0.06182182, 0.02641648, 0.00000000, 0.00000000, 0.00000000, 0.32394842, -0.01227067, -0.48247662, 0.81370950
424169228.787021, 0.48776245, -0.48451233, -0.68968201, 0.06090996, 0.12447295, -0.01474459, -174.69738770, 149.71615601, 236.81053162, 0.29609811, -0.54033196, -0.78763396, 0.19817986, 0.05673518, 0.07944305, 0.00000000, 0.00000000, 0.00000000, 0.32567156, -0.01100226, -0.48207147, 0.81327983
424169228.802559, 0.49023438, -0.48339844, -0.67495728, 0.02701777, 0.14706402, 0.02252262, -173.49966431, 149.20285034, 235.31278992, 0.29818520, -0.54108822, -0.78632635, 0.19140832, 0.06048217, 0.09092228, 0.00000000, 0.00000000, 0.00000000, 0.32670055, -0.01017755, -0.48168883, 0.81310457
424169228.818238, 0.44795227, -0.47633362, -0.67915344, 0.00835061, 0.15649001, 0.02015773, -174.52629089, 148.17622375, 234.97996521, 0.29966557, -0.54158843, -0.78541869, 0.18090999, 0.05448208, 0.11323854, 0.00000000, 0.00000000, 0.00000000, 0.32741515, -0.00948502, -0.48117906, 0.81312734
424169228.835415, 0.38909912, -0.46829224, -0.65824890, -0.03856950, 0.16369066, 0.01047714, -173.67076111, 147.32070923, 235.14637756, 0.30129406, -0.54184431, -0.78461879, 0.14665821, 0.06551067, 0.10546536, 0.00000000, 0.00000000, 0.00000000, 0.32805030, -0.00857919, -0.48048852, 0.81328973
424169228.850150, 0.38909912, -0.46829224, -0.65824890, -0.07181454, 0.13437938, -0.04040575, -173.67076111, 147.32070923, 235.14637756, 0.30303508, -0.54170716, -0.78404278, 0.08606403, 0.07341495, 0.12579386, 0.00000000, 0.00000000, 0.00000000, 0.32851506, -0.00751463, -0.47982798, 0.81350261
424169228.865946, 0.33360291, -0.45381165, -0.67753601, -0.12349131, 0.12368306, -0.11793995, -175.21069336, 147.49180603, 234.64712524, 0.30495989, -0.54079098, -0.78392893, 0.05731427, 0.08586543, 0.11020763, 0.00000000, 0.00000000, 0.00000000, 0.32862807, -0.00625420, -0.47947469, 0.81367592
424169228.881543, 0.35221863, -0.45848083, -0.71038818, -0.14549249, 0.13277776, -0.17737558, -174.35517883, 148.68952942, 234.81353760, 0.30720711, -0.53896129, -0.78431147, 0.02296256, 0.08405102, 0.09606381, 0.00000000, 0.00000000, 0.00000000, 0.32836182, -0.00477224, -0.47961357, 0.81371160
424169228.897224, 0.44473267, -0.48356628, -0.75559998, -0.13572294, 0.22247062, -0.19905371, -173.49966431, 147.83401489, 234.97996521, 0.30999097, -0.53637791, -0.78498685, 0.09278002, 0.06929110, 0.05349576, 0.00000000, 0.00000000, 0.00000000, 0.32786800, -0.00302436, -0.48024189, 0.81354849
424169228.912794, 0.46116638, -0.49298096, -0.82444763, -0.09683174, 0.22815408, -0.18924183, -175.03959656, 146.29408264, 233.81504822, 0.31395018, -0.53359252, -0.78531158, 0.13078249, 0.05002624, 0.02971162, 0.00000000, 0.00000000, 0.00000000, 0.32763347, -0.00071322, -0.48088838, 0.81326636
424169228.929142, 0.46116638, -0.49298096, -0.82444763, -0.07971321, 0.19417933, -0.19428586, -175.21069336, 148.86064148, 235.64562988, 0.31834728, -0.53120542, -0.78515971, 0.14281911, 0.03822448, -0.03928791, 0.00000000, 0.00000000, 0.00000000, 0.32774563, 0.00171488, -0.48140869, 0.81291176
424169228.944583, 0.44754028, -0.48229980, -0.85449219, 0.00710238, 0.17615000, -0.20182820, -175.21069336, 148.86064148, 235.64562988, 0.32243648, -0.52909613, -0.78491527, 0.12510380, 0.04679635, -0.06957692, 0.00000000, 0.00000000, 0.00000000, 0.32791356, 0.00388123, -0.48203212, 0.81246703
424169228.960738, 0.47851562, -0.49002075, -0.79605103, 0.00542406, 0.22659826, -0.16143124, -175.38180542, 147.66291809, 235.14637756, 0.32629672, -0.52774328, -0.78423047, 0.13059722, 0.04353614, -0.07056686, 0.00000000, 0.00000000, 0.00000000, 0.32840903, 0.00567972, -0.48274362, 0.81183363
424169228.976245, 0.50523376, -0.50207520, -0.74011230, -0.01243084, 0.22826060, -0.09641256, -176.92173767, 148.86064148, 234.97996521, 0.33014387, -0.52697128, -0.78313875, 0.17312151, 0.02446881, 0.04179050, 0.00000000, 0.00000000, 0.00000000, 0.32920561, 0.00736777, -0.48327039, 0.81118377
424169228.992563, 0.47746277, -0.50329590, -0.70874023, -0.07127578, 0.23820964, -0.04914171, -175.89511108, 147.83401489, 235.64562988, 0.33389509, -0.52617955, -0.78207999, 0.17133869, 0.02410438, 0.04196770, 0.00000000, 0.00000000, 0.00000000, 0.32996248, 0.00920658, -0.48333578, 0.81081843
424169229.008406, 0.47746277, -0.50329590, -0.70874023, -0.13297430, 0.20703068, -0.04914225, -176.06622314, 147.32070923, 234.14787292, 0.33717501, -0.52529782, -0.78126514, 0.14028776, 0.02200192, 0.07252491, 0.00000000, 0.00000000, 0.00000000, 0.33052284, 0.01104911, -0.48295899, 0.81079170
424169229.024205, 0.45828247, -0.49917603, -0.78552246, -0.08931603, 0.14261734, -0.04510623, -175.89511108, 149.88726807, 235.64562988, 0.34016317, -0.52347779, -0.78119141, 0.11811931, 0.02430179, -0.00433106, 0.00000000, 0.00000000, 0.00000000, 0.33050647, 0.01302964, -0.48263826, 0.81095993
424169229.040562, 0.42504883, -0.49868774, -0.84873962, -0.00082824, 0.15852546, -0.03693405, -175.55290222, 149.88726807, 235.64562988, 0.34251353, -0.52184218, -0.78125876, 0.09956412, 0.03595654, -0.05998880, 0.00000000, 0.00000000, 0.00000000, 0.33038737, 0.01465631, -0.48236839, 0.81114124
424169229.055548, 0.44976807, -0.48667908, -0.80458069, 0.06144259, 0.14874314, -0.05390584, -175.55290222, 149.88726807, 235.64562988, 0.34461576, -0.52124834, -0.78073049, 0.10332125, 0.01976826, -0.04992746, 0.00000000, 0.00000000, 0.00000000, 0.33073261, 0.01583326, -0.48215830, 0.81110334
424169229.070851, 0.37898254, -0.50816345, -0.73017883, 0.06846002, 0.05720150, -0.12868528, -174.86849976, 147.49180603, 233.64862061, 0.34678549, -0.52157569, -0.77955025, 0.10298257, 0.03489663, -0.02503043, 0.00000000, 0.00000000, 0.00000000, 0.33157698, 0.01678026, -0.48189628, 0.81089525
424169229.086422, 0.37898254, -0.50816345, -0.73017883, 0.03648344, 0.10969241, -0.16305896, -174.18408203, 148.51843262, 234.31430054, 0.34880462, -0.52186859, -0.77845263, 0.03017792, 0.01370511, 0.04827382, 0.00000000, 0.00000000, 0.00000000, 0.33237224, 0.01738858, -0.48232771, 0.81030014
424169229.102731, 0.36424255, -0.48329163, -0.68618774, 0.04075995, -0.26820536, -0.11112998, -175.21069336, 148.51843262, 234.64712524, 0.35107270, -0.52160835, -0.77760702, 0.01316985, 0.03831672, 0.09141929, 0.00000000, 0.00000000, 0.00000000, 0.33296387, 0.01820841, -0.48291485, 0.80968930
424169229.118429, 0.37763977, -0.40264893, -0.61294556, -0.19629388, 0.09018662, -0.31595477, -174.52629089, 147.14959717, 234.97996521, 0.35143635, -0.52114135, -0.77775586, 0.07461955, 0.05706054, 0.09086622, 0.00000000, 0.00000000, 0.00000000, 0.33285870, 0.01808736, -0.48393888, 0.80912365
424169229.134434, 0.48695374, -0.51828003, -0.48442078, -0.38800979, 0.26343936, -0.21496903, -175.38180542, 147.66291809, 235.14637756, 0.35114419, -0.51908326, -0.77926266, 0.01067221, 0.05846620, 0.51803219, 0.00000000, 0.00000000, 0.00000000, 0.33173885, 0.01783256, -0.48578819, 0.80848078
424169229.150049, 0.44042969, -0.42483521, -0.66943359, -0.31686078, 0.37406974, -0.19375722, -175.38180542, 147.66291809, 235.14637756, 0.35684642, -0.51302958, -0.78068000, 0.13010733, -0.00525043, 0.29625922, 0.00000000, 0.00000000, 0.00000000, 0.33042601, 0.02187803, -0.48644566, 0.80852373
424169229.167420, 0.38389587, -0.44572449, -0.70672607, -0.18711157, 0.89256723, -0.23030165, -176.92173767, 146.80738831, 233.98146057, 0.36204970, -0.50766402, -0.78179109, 0.07837998, 0.08282880, 0.11235747, 0.00000000, 0.00000000, 0.00000000, 0.32931268, 0.02564419, -0.48673042, 0.80869588
424169229.181825, 0.38389587, -0.44572449, -0.70672607, 0.04536908, 1.99358753, -0.35614134, -175.55290222, 146.80738831, 233.64862061, 0.37203714, -0.50350153, -0.77979136, 0.01185874, 0.05777704, 0.07306530, 0.00000000, 0.00000000, 0.00000000, 0.33032626, 0.03144646, -0.48617665, 0.80841076
424169229.197688, 0.27377319, -0.43188477, -0.76390076, 0.43220282, 2.95346749, -0.51880722, -178.46168518, 146.29408264, 232.48371887, 0.39390370, -0.50104636, -0.77057928, -0.06133839, 0.07093162, 0.05253118, 0.00000000, 0.00000000, 0.00000000, 0.33599688, 0.04261993, -0.48380917, 0.80698099
424169229.213753, 0.25776672, -0.44779968, -0.85807800, 0.80989232, 3.02741335, -0.49617301, -177.26394653, 147.83401489, 232.98295593, 0.43017158, -0.50149441, -0.75063688, -0.12771188, 0.05305388, -0.13469331, 0.00000000, 0.00000000, 0.00000000, 0.34796106, 0.06003882, -0.47951689, 0.80335671
424169229.229030, 0.11585999, -0.52629089, -1.02368164, 1.09696697, 2.54456786, -0.36506452, -179.14610291, 146.97850037, 231.48521423, 0.47051978, -0.50586885, -0.72298539, -0.21275306, 0.05806914, -0.13509262, 0.00000000, 0.00000000, 0.00000000, 0.36377575, 0.07857806, -0.47439193, 0.79777502
424169229.244654, 0.11585999, -0.52629089, -1.02368164, 1.31961763, 3.01430953, -0.27459028, -180.51493835, 147.66291809, 230.48670959, 0.50253075, -0.51412374, -0.69508243, -0.38667077, -0.01216713, -0.32859921, 0.00000000, 0.00000000, 0.00000000, 0.37940614, 0.09224839, -0.46975375, 0.79175289
424169229.260810, 0.22509766, -0.50012207, -0.67478943, 1.29021979, 3.25763883, 0.16911259, -180.51493835, 147.66291809, 230.48670959, 0.53531271, -0.52522606, -0.66149670, -0.31021506, 0.02510401, -0.01329275, 0.00000000, 0.00000000, 0.00000000, 0.39747914, 0.10612254, -0.46391661, 0.78455702
424169229.276398, 0.41642761, -0.53532410, -0.35729980, 1.29117187, 4.01739821, 0.72184848, -184.27922058, 150.05836487, 227.49122620, 0.56735301, -0.53869128, -0.62283409, -0.17880322, -0.04356887, 0.09101948, 0.00000000, 0.00000000, 0.00000000, 0.41708536, 0.12092465, -0.45469003, 0.77760788
424169229.292462, 0.33106995, -0.54095459, -0.25694275, 1.39767967, 4.56161145, 1.05211348, -183.59480286, 150.05836487, 227.49122620, 0.59792137, -0.55584145, -0.57752085, -0.17308617, 0.00470923, 0.33942270, 0.00000000, 0.00000000, 0.00000000, 0.43860928, 0.13733708, -0.44006011, 0.77143213
424169229.308105, 0.21020508, -0.46397400, -0.50682068, 1.81154822, 4.33353035, 0.77329330, -185.47695923, 150.91389465, 226.99197388, 0.62753987, -0.57721943, -0.52250493, -0.42061543, 0.08671040, 0.12685981, 0.00000000, 0.00000000, 0.00000000, 0.46297760, 0.15620265, -0.41963514, 0.76495675
424169229.323832, 0.21020508, -0.46397400, -0.50682068, 2.28820266, 3.68097439, 0.42635531, -186.50357056, 151.25610352, 224.99497986, 0.65359128, -0.59938014, -0.46212754, -0.44338623, 0.13540614, -0.04469313, 0.00000000, 0.00000000, 0.00000000, 0.48851454, 0.17403957, -0.39967280, 0.75586072
424169229.340052, 0.36741638, -0.60115051, -0.72161865, 2.90668507, 3.17094788, 0.22643421, -186.84577942, 152.96714783, 222.33230591, 0.67531234, -0.61927146, -0.40056977, -0.30789596, 0.01812092, -0.32104889, 0.00000000, 0.00000000, 0.00000000, 0.51386412, 0.18883532, -0.38382860, 0.74361314
424169229.355839, 0.34234619, -0.52474976, -0.33081055, 2.67903699, 3.04284770, 0.45353207, -189.75456238, 154.16487122, 220.50172424, 0.69166094, -0.63833731, -0.33783221, -0.34640032, 0.07415886, -0.26325727, 0.00000000, 0.00000000, 0.00000000, 0.54007042, 0.19851407, -0.37275548, 0.72799001
424169229.371260, 0.32510376, -0.49502563, 0.25888062, 2.20232636, 4.95301943, 1.26025017, -189.75456238, 154.16487122, 220.50172424, 0.70272559, -0.65610802, -0.27513459, -0.38769263, -0.00462809, 0.22307162, 0.00000000, 0.00000000, 0.00000000, 0.56565289, 0.20608131, -0.36184257, 0.71178456
424169229.387466, 0.51893616, -0.63542175, -0.22709656, 2.58092347, 6.12581326, 1.74002370, -188.04351807, 154.84928894, 218.50473022, 0.70884079, -0.67563564, -0.20263557, -0.32354110, 0.23175749, 0.23457222, 0.00000000, 0.00000000, 0.00000000, 0.59205930, 0.21942651, -0.34040070, 0.69673894
424169229.403318, 0.46780396, -0.79376221, -0.16990662, 3.81173773, 5.25580167, 1.43806145, -187.18798828, 155.02038574, 214.01148987, 0.70554674, -0.69988292, -0.11121002, -0.18661059, 0.06446118, -0.11588654, 0.00000000, 0.00000000, 0.00000000, 0.62267536, 0.23805541, -0.30683925, 0.67930456
424169229.418535, 0.46780396, -0.79376221, -0.16990662, 2.44621147, 3.85635899, 0.80686617, -187.70130920, 155.87591553, 212.51374817, 0.69286788, -0.72101432, -0.00851402, -0.22506391, -0.07274790, -0.16139260, 0.00000000, 0.00000000, 0.00000000, 0.65784359, 0.25096773, -0.27720751, 0.65376831
424169229.435041, 0.23579407, -0.40052795, 0.30085754, 2.03652674, 3.81692450, 0.67274112, -187.70130920, 156.21812439, 212.18090820, 0.67903638, -0.73061341, 0.07150929, -0.36967972, -0.02118710, 0.05675609, 0.00000000, 0.00000000, 0.00000000, 0.68364398, 0.26150633, -0.25492929, 0.63186740
424169229.450151, 0.32792664, -0.31820679, 0.38587952, 1.75786821, 4.83927369, 0.96856213, -187.35910034, 154.84928894, 207.85408020, 0.66498578, -0.73457247, 0.13489684, -0.36902630, 0.57687289, 0.29692689, 0.00000000, 0.00000000, 0.00000000, 0.70252904, 0.27184807, -0.23568637, 0.61400612
424169229.466514, 0.26531982, -0.43447876, -0.08312988, 1.83205856, 5.83234835, 1.18261290, -187.35910034, 154.84928894, 207.85408020, 0.64281917, -0.73848021, 0.20354478, -0.31643367, 0.30499330, 0.07279190, 0.00000000, 0.00000000, 0.00000000, 0.72147850, 0.28502835, -0.21045532, 0.59492535
424169229.482466, 0.25729370, -0.74060059, -0.66468811, 3.63749509, 5.33022318, 0.47262827, -184.96363831, 155.19149780, 205.19142151, 0.60791981, -0.74388576, 0.27761042, -0.34259999, 0.30940697, -0.36074030, 0.00000000, 0.00000000, 0.00000000, 0.74026605, 0.30134927, -0.17677765, 0.57440792
424169229.498131, 0.25729370, -0.74060059, -0.66468811, 3.13557205, 4.35709906, -0.48810896, -185.99026489, 154.84928894, 202.52876282, 0.57029980, -0.73547047, 0.36584327, -0.31300613, -0.00513011, -1.03053141, 0.00000000, 0.00000000, 0.00000000, 0.76269802, 0.31814047, -0.14714984, 0.54353040
424169229.513595, 0.09756470, -0.22825623, 0.11051941, 3.81430954, 3.24368200, -1.19328898, -185.64805603, 154.16487122, 200.53176880, 0.54230702, -0.71249771, 0.44525290, -0.59423268, 0.28781506, -0.32019186, 0.00000000, 0.00000000, 0.00000000, 0.78150124, 0.33448806, -0.12834546, 0.51078469
424169229.529186, 0.40037537, -0.14656067, 0.97244263, 3.13873402, 3.13566925, -1.32667767, -184.45033264, 151.59831238, 200.03251648, 0.52611995, -0.67696768, 0.51469660, -0.30692747, 0.58585745, -0.10458611, 0.00000000, 0.00000000, 0.00000000, 0.79637747, 0.35090058, -0.11978751, 0.47781028
424169229.544616, 1.00401306, -0.20065308, 1.12351990, 3.00968309, 3.69717786, -0.86008039, -182.91038513, 152.45382690, 196.53776550, 0.51273263, -0.63723302, 0.57536018, 0.14841546, 0.42078710, 0.49136651, 0.00000000, 0.00000000, 0.00000000, 0.80781035, 0.36759017, -0.11422792, 0.44639880
424169229.561079, 1.26795959, -0.54489136, 0.96684265, 2.95997173, 3.44542072, -0.27122325, -181.37045288, 148.17622375, 195.04002380, 0.48927501, -0.60035580, 0.63260007, 0.51473802, 0.39970273, 0.49091980, 0.00000000, 0.00000000, 0.00000000, 0.81805546, 0.38351703, -0.10413293, 0.41575989
424169229.576586, 1.26795959, -0.54489136, 0.96684265, 2.89908014, 3.35542771, 0.22827125, -181.37045288, 148.17622375, 195.04002380, 0.45612359, -0.56565243, 0.68701428, 0.81183600, 0.02076109, 0.27982840, 0.00000000, 0.00000000, 0.00000000, 0.82891757, 0.39547793, -0.09151422, 0.38486104
424169229.592794, 0.96812439, -0.39056396, 1.02180481, 2.87757192, 3.10749700, 0.51371365, -180.00161743, 148.86064148, 193.70869446, 0.41722205, -0.53408265, 0.73531044, 0.72218221, 0.02939822, 0.30553734, 0.00000000, 0.00000000, 0.00000000, 0.83989718, 0.40277531, -0.07797356, 0.35533773
424169229.608083, 0.50816345, -0.04267883, 1.53878784, 2.38134139, 3.46393688, 0.71234606, -179.48831177, 149.71615601, 193.20944214, 0.37606308, -0.50144839, 0.77918297, 0.33931473, 0.27499273, 0.48393962, 0.00000000, 0.00000000, 0.00000000, 0.85106530, 0.40654561, -0.06530670, 0.32579681
424169229.624289, 0.27392578, -0.04737854, 1.28863525, 2.41772976, 3.52425188, 0.68230773, -178.11947632, 147.66291809, 191.54527283, 0.32728601, -0.47393125, 0.81747967, 0.01704382, 0.48191160, 0.49442524, 0.00000000, 0.00000000, 0.00000000, 0.86086176, 0.40945925, -0.04824950, 0.29821493
424169229.640086, 0.11662292, -0.08721924, 1.01155090, 2.30349799, 3.11878481, 0.51023876, -175.21069336, 146.12297058, 190.38035583, 0.27618229, -0.44557253, 0.85157996, -0.00225651, 0.39819399, 0.43705526, 0.00000000, 0.00000000, 0.00000000, 0.86971393, 0.41156734, -0.03068541, 0.27068139
424169229.655616, 0.11662292, -0.08721924, 1.01155090, 2.63875269, 2.19261595, -0.04060282, -175.21069336, 146.12297058, 190.38035583, 0.22652359, -0.41651592, 0.88045532, -0.10990067, 0.32929668, 0.13109559, 0.00000000, 0.00000000, 0.00000000, 0.87696954, 0.41370531, -0.01400695, 0.24408226
424169229.672607, -0.10365295, -0.13209534, 1.01924133, 2.61345399, 1.59748866, -0.60713841, -174.35517883, 146.63629150, 189.88111877, 0.19000284, -0.38138178, 0.90468055, -0.29365581, 0.24928643, 0.11456080, 0.00000000, 0.00000000, 0.00000000, 0.88232013, 0.41695499, -0.00452795, 0.21826413
424169229.687529, -0.07594299, 0.01246643, 1.38107300, 2.45557115, 1.13842280, -0.99354817, -175.38180542, 145.26745605, 191.21244812, 0.16700354, -0.34244156, 0.92457753, -0.30741492, 0.29652786, 0.28686351, 0.00000000, 0.00000000, 0.00000000, 0.88526013, 0.42261480, -0.00162150, 0.19418705
424169229.703444, 0.03620911, -0.07658386, 1.71456909, 1.92166460, 0.97205193, -1.19044659, -174.18408203, 143.38529968, 190.04753113, 0.15213783, -0.30313626, 0.94072443, -0.17232521, 0.27342740, 0.60325140, 0.00000000, 0.00000000, 0.00000000, 0.88604159, 0.43045619, -0.00222266, 0.17214191
424169229.718818, 0.42030334, -0.03279114, 1.83377075, 1.25891486, 1.00859663, -0.96048503, -175.38180542, 143.21420288, 191.54527283, 0.14206767, -0.26870564, 0.95268780, -0.10585857, 0.19212177, 0.76188129, 0.00000000, 0.00000000, 0.00000000, 0.88492595, 0.43960206, -0.00388993, 0.15375619
424169229.734657, 0.42030334, -0.03279114, 1.83377075, 0.70443034, 1.09856913, -0.48641412, -174.01296997, 141.84536743, 191.54527283, 0.13137729, -0.24441250, 0.96073020, 0.28892606, 0.21162136, 0.87304056, 0.00000000, 0.00000000, 0.00000000, 0.88293857, 0.44808992, -0.00330453, 0.14008560
424169229.750777, 0.58139038, -0.15408325, 1.66629028, 0.22126794, 0.91182215, -0.15239353, -174.01296997, 142.87199402, 190.54678345, 0.11731461, -0.22972494, 0.96615928, 0.46407577, 0.07564169, 0.70013100, 0.00000000, 0.00000000, 0.00000000, 0.88167781, 0.45356794, 0.00038765, 0.13007773
424169229.766347, 0.36555481, -0.14991760, 1.28251648, 0.23176239, 0.79242252, -0.00762862, -174.01296997, 142.87199402, 190.54678345, 0.10284905, -0.22398831, 0.96914977, 0.40749642, 0.01807095, 0.51432496, 0.00000000, 0.00000000, 0.00000000, 0.88116792, 0.45619952, 0.00586856, 0.12405912
424169229.783699, 0.05209351, -0.14756775, 1.10833740, 0.50723498, 0.95463060, 0.04101774, -173.67076111, 142.52978516, 190.87960815, 0.09084122, -0.22095406, 0.97104436, 0.09198959, 0.09709846, 0.22835748, 0.00000000, 0.00000000, 0.00000000, 0.88119716, 0.45718022, 0.01063741, 0.11985265
424169229.797930, 0.02740479, -0.15895081, 1.08818054, 0.60938852, 0.87008429, 0.04998354, -172.47303772, 142.01647949, 192.04452515, 0.07651913, -0.21496126, 0.97362030, -0.02442563, 0.06739350, 0.13471711, 0.00000000, 0.00000000, 0.00000000, 0.88161883, 0.45777548, 0.01567844, 0.11377187
424169229.814404, 0.02740479, -0.15895081, 1.08818054, 0.59728658, 0.77556364, 0.04362311, -171.44641113, 142.35868835, 189.71469116, 0.06230896, -0.20592576, 0.97658187, -0.03490417, 0.04697495, 0.11159866, 0.00000000, 0.00000000, 0.00000000, 0.88222380, 0.45822714, 0.01992851, 0.10635748
424169229.829520, 0.05470276, -0.03904724, 1.11270142, 0.49202460, 0.51196316, -0.01774251, -170.76199341, 140.64764404, 189.38186646, 0.04949696, -0.19685063, 0.97918326, 0.00520580, 0.15780339, 0.13351814, 0.00000000, 0.00000000, 0.00000000, 0.88280456, 0.45852780, 0.02352756, 0.09927144
424169229.845192, 0.02661133, -0.08554077, 1.09075928, 0.48095145, 0.31531215, -0.11774341, -170.41978455, 138.25218201, 191.04602051, 0.04023731, -0.18869334, 0.98121136, -0.00347889, 0.13560802, 0.13147478, 0.00000000, 0.00000000, 0.00000000, 0.88319368, 0.45888410, 0.02576759, 0.09343629
424169229.861736, 0.10098267, -0.16281128, 1.03950500, 0.40423829, 0.07862823, -0.14228178, -169.39315796, 138.59439087, 188.38336182, 0.03422712, -0.18140478, 0.98281270, 0.02812029, 0.06151648, 0.05299968, 0.00000000, 0.00000000, 0.00000000, 0.88319873, 0.45974596, 0.02681583, 0.08873872
424169229.876819, 0.16137695, -0.16075134, 1.05688477, 0.31645784, 0.13711525, -0.00953864, -169.39315796, 138.59439087, 188.38336182, 0.03241282, -0.17476265, 0.98407692, 0.06856985, 0.01195137, 0.05542807, 0.00000000, 0.00000000, 0.00000000, 0.88299849, 0.46081682, 0.02616486, 0.08530492
424169229.893065, 0.16137695, -0.16075134, 1.05688477, 0.24596450, 0.33728163, 0.21071303, -169.73536682, 138.93659973, 188.71620178, 0.03090956, -0.16937712, 0.98506647, 0.13046739, 0.00862578, 0.07181828, 0.00000000, 0.00000000, 0.00000000, 0.88303504, 0.46128339, 0.02560953, 0.08252822
424169229.908527, 0.09150696, -0.14196777, 1.01301575, 0.32762501, 0.41405843, 0.43165687, -170.76199341, 140.64764404, 187.71769714, 0.02646353, -0.16557871, 0.98584145, 0.06504343, 0.02361094, 0.02717429, 0.00000000, 0.00000000, 0.00000000, 0.88369944, 0.46043025, 0.02661423, 0.07981827
424169229.924715, 0.11837769, -0.09341431, 0.89488220, 0.41120299, 0.37600133, 0.58203439, -168.87985229, 139.44990540, 188.88261414, 0.01906549, -0.16149105, 0.98668998, 0.08823432, 0.07001460, -0.02205987, 0.00000000, 0.00000000, 0.00000000, 0.88513809, 0.45812177, 0.02874478, 0.07634618
424169229.940123, 0.01855469, -0.12977600, 0.79853821, 0.59503168, 0.25140827, 0.60514983, -169.56427002, 139.79211426, 189.54827881, 0.01148628, -0.15525194, 0.98780811, 0.07800652, 0.03531785, -0.09373464, 0.00000000, 0.00000000, 0.00000000, 0.88728548, 0.45456413, 0.03037534, 0.07192547
424169229.956771, -0.17762756, -0.06254578, 0.83818054, 0.78651270, 0.28125964, 0.50406129, -169.56427002, 139.79211426, 189.54827881, 0.00543450, -0.14746529, 0.98905230, 0.01312019, 0.01768928, -0.19051409, 0.00000000, 0.00000000, 0.00000000, 0.88971376, 0.45048371, 0.03096729, 0.06719283
424169229.971693, -0.17762756, -0.06254578, 0.83818054, 0.90837256, 0.36379127, 0.36588158, -170.07757568, 140.30543518, 190.38035583, 0.00016332, -0.13627352, 0.99067122, -0.17779088, 0.07372773, -0.15249069, 0.00000000, 0.00000000, 0.00000000, 0.89200442, 0.44683749, 0.03051555, 0.06109977
424169229.987068, -0.28480530, -0.07022095, 0.89944458, 0.92349612, 0.23761123, 0.16956453, -170.41978455, 138.59439087, 190.38035583, -0.00662251, -0.12257453, 0.99243724, -0.27818280, 0.05235358, -0.09299263, 0.00000000, 0.00000000, 0.00000000, 0.89382074, 0.44418813, 0.03029731, 0.05351136
424169230.003737, -0.18263245, -0.03314209, 1.05021667, 0.84339302, 0.20938625, 0.06350787, -170.07757568, 140.98985291, 190.04753113, -0.01116192, -0.10808894, 0.99407858, -0.25780475, 0.06539485, -0.02834980, 0.00000000, 0.00000000, 0.00000000, 0.89497694, 0.44278161, 0.02901062, 0.04603370
424169230.018637, -0.09825134, -0.01017761, 1.09210205, 0.75604427, 0.17072274, -0.03814233, -170.07757568, 139.62101746, 192.04452515, -0.01488447, -0.09451955, 0.99541175, -0.10614825, 0.08342641, 0.08433071, 0.00000000, 0.00000000, 0.00000000, 0.89560058, 0.44227306, 0.02763038, 0.03912414
424169230.035135, -0.09849548, -0.01492310, 1.05834961, 0.60939331, -0.06555531, -0.24962501, -172.47303772, 138.25218201, 190.71319580, -0.01805253, -0.08227969, 0.99644578, -0.08112960, 0.06828738, 0.07891740, 0.00000000, 0.00000000, 0.00000000, 0.89586450, 0.44232305, 0.02633020, 0.03292171
424169230.051463, -0.11068726, 0.01193237, 1.06938171, 0.53185724, -0.16533889, -0.41155213, -170.07757568, 139.27880859, 191.37886047, -0.01830997, -0.07199209, 0.99723715, -0.08018551, 0.05706900, 0.06111249, 0.00000000, 0.00000000, 0.00000000, 0.89547248, 0.44356240, 0.02419796, 0.02821163
424169230.066698, -0.11068726, 0.01193237, 1.06938171, 0.47587120, 0.00644032, -0.43021796, -170.07757568, 139.27880859, 191.37886047, -0.01550428, -0.06359819, 0.99785513, -0.09518298, 0.07553057, 0.07152657, 0.00000000, 0.00000000, 0.00000000, 0.89438915, 0.44608925, 0.02114134, 0.02500944
424169230.083727, -0.03741455, -0.02449036, 1.03320312, 0.67018049, 0.18465400, -0.31813776, -170.59088135, 137.73886108, 191.21244812, -0.01431623, -0.05612600, 0.99832106, -0.05616412, 0.06615103, 0.08879138, 0.00000000, 0.00000000, 0.00000000, 0.89300764, 0.44910788, 0.01901153, 0.02186406
424169230.098170, 0.02291870, -0.06378174, 1.05073547, 0.70626286, 0.10798879, -0.22476680, -167.85322571, 137.73886108, 189.54827881, -0.01598282, -0.04682346, 0.99877530, 0.01232071, -0.01265530, 0.03419894, 0.00000000, 0.00000000, 0.00000000, 0.89186141, 0.45163135, 0.01771155, 0.01728143
424169230.115982, 0.04061890, -0.01573181, 1.11323547, 0.64875962, -0.00547706, -0.12483940, -168.87985229, 136.71224976, 191.21244812, -0.01865814, -0.03580205, 0.99918473, 0.05750701, -0.02002986, 0.05454148, 0.00000000, 0.00000000, 0.00000000, 0.89108365, 0.45338977, 0.01643582, 0.01172639
424169230.130108, 0.05911255, 0.05056763, 1.12913513, 0.63623131, 0.04909431, 0.00745925, -168.19543457, 136.02783203, 191.87811279, -0.01856490, -0.02546319, 0.99950337, 0.05918380, 0.00973138, 0.11373211, 0.00000000, 0.00000000, 0.00000000, 0.89060680, 0.45450105, 0.01405703, 0.00712173
424169230.145391, 0.05911255, 0.05056763, 1.12913513, 0.52898928, 0.07038735, 0.14868881, -168.70874023, 135.51451111, 190.04753113, -0.01933016, -0.01538210, 0.99969482, 0.07844271, 0.06594972, 0.12944031, 0.00000000, 0.00000000, 0.00000000, 0.89055450, 0.45470880, 0.01210631, 0.00245488
424169230.161367, 0.01306152, 0.03640747, 1.13627625, 0.48091629, 0.09436485, 0.20910928, -168.87985229, 136.71224976, 190.54678345, -0.02026048, -0.00661883, 0.99977285, 0.07542100, 0.03445086, 0.14918347, 0.00000000, 0.00000000, 0.00000000, 0.89098255, 0.45391244, 0.01052925, -0.00164980
424169230.177048, -0.03984070, 0.06948853, 1.16407776, 0.34710869, 0.11491913, 0.20572840, -168.87985229, 136.71224976, 190.54678345, -0.02181410, 0.00136526, 0.99976110, -0.01015306, 0.04650156, 0.14510584, 0.00000000, 0.00000000, 0.00000000, 0.89172614, 0.45244341, 0.00941837, -0.00554421
424169230.192714, -0.14562988, 0.05992126, 1.78817749, -0.30271992, -0.07135434, 0.08643183, -169.05094910, 134.83009338, 192.37736511, -0.02349591, 0.00752864, 0.99969560, -0.04606891, 0.09052435, 0.22372361, 0.00000000, 0.00000000, 0.00000000, 0.89253080, 0.45081765, 0.00878973, -0.00865727
424169230.209098, -0.20030212, -0.01795959, 1.08340454, -0.34066651, 0.70617525, 0.07457597, -168.36653137, 134.48788452, 190.38035583, -0.02025378, 0.00172333, 0.99979341, -0.12537611, 0.05819793, 0.78838408, 0.00000000, 0.00000000, 0.00000000, 0.89300051, 0.44994087, 0.00865651, -0.00532652
424169230.224911, -0.20030212, -0.01795959, 1.08340454, -0.51487905, 0.18747615, 0.03849227, -169.90646362, 138.08106995, 190.87960815, -0.02924330, -0.00203875, 0.99957025, -0.17105882, -0.01592085, 0.08383430, 0.00000000, 0.00000000, 0.00000000, 0.89348105, 0.44886160, 0.01352463, -0.00565352
424169230.240226, -0.01007080, 0.07229614, 1.02532959, -0.22999645, 0.11933252, 0.02985244, -169.90646362, 136.71224976, 192.21093750, -0.03190231, -0.00975940, 0.99944335, -0.02617264, -0.01767591, -0.10674315, 0.00000000, 0.00000000, 0.00000000, 0.89367919, 0.44839622, 0.01644783, -0.00279233
424169230.256206, -0.06054688, 0.09918213, 0.99864197, -0.30261340, 0.27707182, -0.00900708, -169.39315796, 139.27880859, 192.37736511, -0.03600461, -0.01509139, 0.99923766, -0.01395266, 0.13497970, -0.17356934, 0.00000000, 0.00000000, 0.00000000, 0.89385607, 0.44792874, 0.01947883, -0.00131949
424169230.271881, 0.01409912, 0.04405212, 0.84790039, -0.10606998, 0.05402995, -0.03977697, -169.39315796, 139.27880859, 192.37736511, -0.03914336, -0.02001336, 0.99903315, 0.00734404, 0.08185723, -0.12774105, 0.00000000, 0.00000000, 0.00000000, 0.89391462, 0.44769771, 0.02198601, 0.00018301
424169230.287449, -0.00593567, 0.04896545, 0.89102173, -0.12514141, -0.04301538, -0.08349623, -170.24867249, 137.73886108, 191.87811279, -0.04121258, -0.02241222, 0.99889898, 0.05531170, 0.06646434, -0.15099861, 0.00000000, 0.00000000, 0.00000000, 0.89382600, 0.44779971, 0.02344944, 0.00078925
424169230.303359, -0.00593567, 0.04896545, 0.89102173, -0.03575640, -0.11339154, -0.05929688, -170.24867249, 139.10769653, 192.54377747, -0.03849450, -0.01799127, 0.99909681, 0.03255883, 0.06695672, -0.10807510, 0.00000000, 0.00000000, 0.00000000, 0.89372418, 0.44811328, 0.02124239, -0.00058560
424169230.318953, 0.00134277, 0.03431702, 0.97575378, -0.34048861, -0.25890613, -0.07654564, -171.95971680, 136.37004089, 192.21093750, -0.03743079, -0.01914604, 0.99911577, 0.02740576, 0.06359489, -0.12210163, 0.00000000, 0.00000000, 0.00000000, 0.89355213, 0.44846681, 0.02102566, 0.00016083
424169230.335432, -0.02726746, 0.01629639, 1.11938477, -0.25507997, -0.00867312, -0.11919537, -169.90646362, 137.73886108, 189.88111877, -0.03314450, -0.02306779, 0.99918431, 0.01675656, 0.03922684, 0.22925501, 0.00000000, 0.00000000, 0.00000000, 0.89342086, 0.44876645, 0.01999017, 0.00286872
424169230.351024, -0.02503967, 0.00796509, 0.97796631, -0.33528479, -0.01510172, -0.09686183, -169.73536682, 138.25218201, 192.04452515, -0.03213248, -0.02737661, 0.99910861, -0.01367440, 0.04669423, 0.01026028, 0.00000000, 0.00000000, 0.00000000, 0.89313098, 0.44930097, 0.02050857, 0.00500910
424169230.367638, -0.00416565, 0.02574158, 1.00517273, -0.29408169, 0.00025034, -0.03099813, -169.22206116, 137.73886108, 191.21244812, -0.03187900, -0.03231572, 0.99896920, 0.00683932, 0.04028080, -0.02100287, 0.00000000, 0.00000000, 0.00000000, 0.89277979, 0.44992093, 0.02151131, 0.00725764
424169230.383350, -0.00416565, 0.02574158, 1.00517273, -0.23594302, 0.11467359, 0.02622095, -169.22206116, 137.73886108, 191.21244812, -0.03261260, -0.03023696, 0.99901056, 0.02844694, 0.05597854, 0.00616215, 0.00000000, 0.00000000, 0.00000000, 0.89270670, 0.45008893, 0.02137197, 0.00616013
424169230.398339, -0.09204102, 0.04814148, 1.02761841, -0.17986431, 0.15502234, -0.00627254, -168.19543457, 137.73886108, 189.54827881, -0.03370718, -0.03420845, 0.99884611, -0.05833383, 0.08234993, 0.02877227, 0.00000000, 0.00000000, 0.00000000, 0.89276969, 0.44987259, 0.02275422, 0.00769260
424169230.415944, -0.10128784, 0.00994873, 1.01838684, -0.11901161, 0.10964980, -0.11812771, -169.56427002, 138.08106995, 189.88111877, -0.04177209, -0.03092691, 0.99864841, -0.05272559, 0.06055948, 0.01859404, 0.00000000, 0.00000000, 0.00000000, 0.89286585, 0.44957177, 0.02561768, 0.00442000
424169230.429778, -0.05821228, 0.03379822, 1.00358582, -0.11847924, 0.06035389, -0.16200861, -168.70874023, 137.56776428, 190.04753113, -0.04421844, -0.03361211, 0.99845630, -0.05000459, 0.06300054, -0.04914599, 0.00000000, 0.00000000, 0.00000000, 0.89260968, 0.44997345, 0.02731827, 0.00505659
424169230.445606, 0.06370544, -0.00509644, 1.01502991, -0.10964314, 0.04932254, -0.04920377, -167.51101685, 136.02783203, 190.54678345, -0.04527519, -0.03549287, 0.99834383, -0.01293709, 0.06929109, 0.00524198, 0.00000000, 0.00000000, 0.00000000, 0.89208983, 0.45094085, 0.02822073, 0.00562786
424169230.462378, 0.06370544, -0.00509644, 1.01502991, -0.10711953, 0.10424704, 0.15425429, -169.22206116, 137.39665222, 189.88111877, -0.04394036, -0.03313505, 0.99848449, 0.10764581, 0.02803861, 0.01654540, 0.00000000, 0.00000000, 0.00000000, 0.89183080, 0.45153082, 0.02709496, 0.00485890
424169230.477260, 0.05546570, -0.01094055, 0.98905945, -0.09246921, 0.01613769, 0.26583301, -169.22206116, 137.39665222, 189.88111877, -0.04547110, -0.03495873, 0.99835378, 0.10093680, 0.02401818, -0.00929433, 0.00000000, 0.00000000, 0.00000000, 0.89216234, 0.45080289, 0.02818675, 0.00534958
424169230.493117, -0.06402588, 0.08245850, 0.91510010, -0.06378857, -0.19349010, 0.17883260, -168.36653137, 137.56776428, 190.71319580, -0.04103815, -0.03063628, 0.99868780, 0.06098139, 0.06287810, -0.03504948, 0.00000000, 0.00000000, 0.00000000, 0.89315163, 0.44902567, 0.02522143, 0.00447077
424169230.509087, -0.21572876, 0.07798767, 0.70170593, 0.07928683, -0.71527713, -0.07862078, -169.05094910, 136.54113770, 190.71319580, -0.03930023, -0.03183087, 0.99872035, -0.13020965, 0.09875592, -0.09385888, 0.00000000, 0.00000000, 0.00000000, 0.89403678, 0.44727888, 0.02470237, 0.00544338
424169230.524506, -0.03877258, 0.03028870, 1.23316956, 0.04559492, -0.51317436, -0.27229357, -169.73536682, 138.25218201, 190.38035583, -0.02987347, -0.03206839, 0.99903911, -0.18585528, 0.11005606, -0.29733321, 0.00000000, 0.00000000, 0.00000000, 0.89423255, 0.44706566, 0.02053512, 0.00766428
424169230.540685, -0.03877258, 0.03028870, 1.23316956, -0.04888898, -0.10786841, -0.31306764, -169.05094910, 137.22555542, 191.37886047, -0.02128807, -0.02994005, 0.99932498, -0.01748452, 0.06022875, 0.23384458, 0.00000000, 0.00000000, 0.00000000, 0.89361077, 0.44846659, 0.01623066, 0.00860679
424169230.556447, 0.00086975, -0.00636292, 1.07208252, -0.00968405, -0.05470799, -0.17443306, -170.07757568, 137.56776428, 190.71319580, -0.01788147, -0.03041888, 0.99937725, 0.01875122, 0.02405597, 0.07270524, 0.00000000, 0.00000000, 0.00000000, 0.89260193, 0.45050020, 0.01483699, 0.00955115
424169230.572157, 0.01988220, -0.01481628, 0.99174500, -0.04872147, -0.04572035, -0.07576054, -170.07757568, 137.56776428, 190.71319580, -0.01668826, -0.03093765, 0.99938202, 0.09585086, -0.00617173, -0.01941678, 0.00000000, 0.00000000, 0.00000000, 0.89182128, 0.45204624, 0.01443856, 0.01002659
424169230.587560, 0.03291321, -0.01707458, 0.99389648, 0.00209964, 0.00524163, 0.09554703, -170.76199341, 139.62101746, 192.37736511, -0.01609991, -0.03139705, 0.99937731, 0.01317022, 0.04114741, 0.02540296, 0.00000000, 0.00000000, 0.00000000, 0.89143328, 0.45280831, 0.01428887, 0.01035232
424169230.604080, 0.00999451, -0.04684448, 0.90837097, 0.06884405, -0.12606472, 0.25233931, -170.76199341, 139.62101746, 191.04602051, -0.01614088, -0.03165990, 0.99936837, 0.04905409, 0.01458532, -0.00547188, 0.00000000, 0.00000000, 0.00000000, 0.89162151, 0.45243262, 0.01436230, 0.01046630
424169230.619159, 0.00999451, -0.04684448, 0.90837097, 0.01935186, -0.00615536, 0.15605884, -170.24867249, 139.79211426, 193.20944214, -0.01437565, -0.03129500, 0.99940681, 0.02437016, -0.01554948, -0.09103584, 0.00000000, 0.00000000, 0.00000000, 0.89247182, 0.45077429, 0.01347242, 0.01072805
424169230.635373, -0.15209961, 0.13070679, 1.01640320, 0.02461640, -0.02038463, -0.06642510, -169.90646362, 138.08106995, 191.87811279, -0.01375988, -0.03079765, 0.99943089, -0.13833973, 0.16150443, 0.01697228, 0.00000000, 0.00000000, 0.00000000, 0.89333267, 0.44907928, 0.01306509, 0.01066967
424169230.651306, -0.01618958, 0.01940918, 1.01220703, 0.02242382, -0.00864888, -0.05810485, -170.07757568, 137.90997314, 192.04452515, -0.01339175, -0.03059561, 0.99944210, -0.01732419, 0.06868155, -0.00023559, 0.00000000, 0.00000000, 0.00000000, 0.89329837, 0.44915375, 0.01285607, 0.01066100
424169230.666678, -0.01795959, -0.00738525, 0.99125671, 0.03307060, 0.00680384, -0.00303334, -170.07757568, 137.90997314, 192.04452515, -0.01324807, -0.03040311, 0.99944991, 0.00828897, 0.01387784, 0.00116043, 0.00000000, 0.00000000, 0.00000000, 0.89309395, 0.44956441, 0.01275347, 0.01060140
424169230.683279, -0.02044678, 0.00054932, 0.97137451, 0.06568207, -0.01559494, -0.01004997, -170.24867249, 139.79211426, 190.87960815, -0.01326973, -0.03015065, 0.99945730, -0.00468987, 0.02276539, -0.00820057, 0.00000000, 0.00000000, 0.00000000, 0.89307545, 0.44960524, 0.01270683, 0.01048318
424169230.699127, -0.02044678, 0.00054932, 0.97137451, -0.07533390, -0.00674738, -0.02534051, -169.39315796, 138.59439087, 191.37886047, -0.01332352, -0.02929557, 0.99948198, -0.00712326, 0.02984489, -0.02810748, 0.00000000, 0.00000000, 0.00000000, 0.89308891, 0.44959226, 0.01253832, 0.01008931
424169230.716268, -0.01774597, 0.00663757, 1.02833557, -0.02317323, 0.02110182, -0.00570928, -168.36653137, 136.88334656, 190.71319580, -0.01309133, -0.03007546, 0.99946189, -0.00465464, 0.03671303, 0.02887367, 0.00000000, 0.00000000, 0.00000000, 0.89306212, 0.44963430, 0.01261056, 0.01048929
424169230.730167, -0.00257874, 0.00704956, 0.95783997, 0.05522491, -0.01217171, -0.03221573, -169.90646362, 138.08106995, 190.54678345, -0.01344700, -0.03093529, 0.99943095, 0.01056309, 0.03970909, -0.04033975, 0.00000000, 0.00000000, 0.00000000, 0.89310102, 0.44953979, 0.01296177, 0.01079476
424169230.745828, -0.01393127, 0.00689697, 1.00608826, 0.04853877, 0.01482049, -0.01437654, -169.22206116, 138.08106995, 190.54678345, -0.01254070, -0.02724349, 0.99955016, 0.00140179, 0.02803695, -0.01749450, 0.00000000, 0.00000000, 0.00000000, 0.89310463, 0.44959893, 0.01172704, 0.00934860
424169230.762273, -0.02311707, 0.01269531, 1.01043701, -0.02807558, 0.00826565, -0.00946647, -168.02432251, 136.54113770, 191.37886047, -0.01258108, -0.02643246, 0.99957144, -0.00577524, 0.03534359, 0.01181163, 0.00000000, 0.00000000, 0.00000000, 0.89308220, 0.44965531, 0.01156320, 0.00897653
424169230.777439, -0.02311707, 0.01269531, 1.01043701, -0.00713115, -0.00944330, -0.02351012, -168.02432251, 136.54113770, 191.37886047, -0.01286738, -0.02683022, 0.99955720, -0.01024968, 0.03952553, 0.01087982, 0.00000000, 0.00000000, 0.00000000, 0.89309224, 0.44962745, 0.01178029, 0.00909018
424169230.793579, -0.02565002, 0.00402832, 0.98965454, 0.03696814, 0.02774561, -0.01078980, -169.05094910, 137.22555542, 191.04602051, -0.01385773, -0.02483230, 0.99959558, -0.01179230, 0.02886062, -0.00994104, 0.00000000, 0.00000000, 0.00000000, 0.89309710, 0.44963914, 0.01177332, 0.00797495
424169230.809134, -0.00520325, 0.00917053, 0.99658203, 0.04110190, -0.00848643, -0.01484339, -170.07757568, 136.88334656, 190.38035583, -0.01409066, -0.02459911, 0.99959809, -0.00325858, 0.03561595, -0.03165680, 0.00000000, 0.00000000, 0.00000000, 0.89310452, 0.44962579, 0.01182479, 0.00781860
424169230.825312, -0.01011658, 0.01023865, 1.00160217, -0.00598519, -0.01059512, -0.02002564, -168.70874023, 138.25218201, 191.71170044, -0.01423134, -0.02410673, 0.99960810, 0.00438942, 0.03289580, -0.00400262, 0.00000000, 0.00000000, 0.00000000, 0.89312337, 0.44959393, 0.01177660, 0.00756746
424169230.840668, -0.01307678, 0.01078796, 1.00213623, -0.01978409, 0.00932453, -0.01983709, -168.87985229, 138.76548767, 190.87960815, -0.01372036, -0.02155055, 0.99967360, 0.00285610, 0.03325404, 0.00668931, 0.00000000, 0.00000000, 0.00000000, 0.89313229, 0.44961264, 0.01097354, 0.00654039
424169230.857505, -0.02522278, 0.00482178, 0.97068787, 0.02003310, 0.00103730, -0.00326557, -171.61750793, 138.08106995, 191.54527283, -0.01384474, -0.02199503, 0.99966222, 0.00076796, 0.03278299, 0.00247402, 0.00000000, 0.00000000, 0.00000000, 0.89312496, 0.44962085, 0.01112913, 0.00671085
424169230.872361, -0.02522278, 0.00482178, 0.97068787, 0.02377990, 0.01264069, -0.01117968, -171.61750793, 138.08106995, 191.54527283, -0.01483995, -0.02005340, 0.99968874, -0.01038283, 0.02487518, -0.02900090, 0.00000000, 0.00000000, 0.00000000, 0.89316606, 0.44955398, 0.01113654, 0.00562070
424169230.888620, -0.01498413, 0.01031494, 1.01187134, -0.00221522, 0.00577000, -0.01272964, -170.93309021, 140.13432312, 192.21093750, -0.01537493, -0.01779296, 0.99972349, -0.00379011, 0.02728393, -0.00558285, 0.00000000, 0.00000000, 0.00000000, 0.89320127, 0.44950331, 0.01086696, 0.00449143
424169230.904041, -0.01263428, 0.01181030, 0.98989868, 0.00457851, -0.01300848, -0.02344754, -170.76199341, 140.30543518, 191.37886047, -0.01570360, -0.01452754, 0.99977112, -0.00225600, 0.02494929, -0.00309756, 0.00000000, 0.00000000, 0.00000000, 0.89323013, 0.44947249, 0.01027950, 0.00295939
424169230.919470, -0.00994873, 0.01174927, 0.98939514, 0.01528947, -0.00607627, -0.02554744, -170.93309021, 138.42327881, 192.21093750, -0.01530821, -0.01197214, 0.99981117, 0.00320799, 0.02372141, 0.00255397, 0.00000000, 0.00000000, 0.00000000, 0.89323298, 0.44948907, 0.00952847, 0.00190670
424169230.935668, -0.02091980, 0.01002502, 0.98992920, 0.02584172, -0.00846805, -0.02547740, -171.10420227, 140.30543518, 190.71319580, -0.01496534, -0.01074725, 0.99983025, 0.00501661, 0.02249652, -0.01043511, 0.00000000, 0.00000000, 0.00000000, 0.89320656, 0.44955219, 0.00910007, 0.00143603
424169230.951469, -0.02091980, 0.01002502, 0.98992920, 0.00952240, 0.00215503, -0.02081500, -169.22206116, 137.73886108, 190.21394348, -0.01540123, -0.00868867, 0.99984366, -0.00551857, 0.01871369, -0.00991444, 0.00000000, 0.00000000, 0.00000000, 0.89318783, 0.44959684, 0.00883198, 0.00041817
424169230.966981, -0.01521301, 0.00962830, 1.00238037, -0.00806858, 0.00815060, -0.01042308, -168.70874023, 136.19892883, 190.38035583, -0.01541080, -0.00774105, 0.99985129, -0.00151120, 0.01665218, 0.00152201, 0.00000000, 0.00000000, 0.00000000, 0.89314210, 0.44969192, 0.00862320, -0.00000813
424169230.984421, -0.01664734, 0.00604248, 0.98962402, 0.01641786, -0.00959910, -0.02792245, -169.39315796, 137.22555542, 191.04602051, -0.01556121, -0.00658850, 0.99985719, 0.00082122, 0.01476721, -0.00847843, 0.00000000, 0.00000000, 0.00000000, 0.89317184, 0.44963616, 0.00843123, -0.00055615
424169230.998820, -0.01057434, 0.00761414, 0.99060059, 0.01407561, -0.00840440, -0.02559910, -169.39315796, 137.22555542, 191.04602051, -0.01546862, -0.00551463, 0.99986517, 0.00320055, 0.01264048, -0.00651798, 0.00000000, 0.00000000, 0.00000000, 0.89315133, 0.44968130, 0.00814837, -0.00101534
424169231.016140, -0.01663208, 0.00698853, 1.00036621, 0.01171258, -0.00717482, -0.01745596, -168.53764343, 137.73886108, 189.88111877, -0.01520098, -0.00487958, 0.99987257, 0.00462664, 0.01249371, -0.00927197, 0.00000000, 0.00000000, 0.00000000, 0.89311163, 0.44976427, 0.00788592, -0.00123950
424169231.030665, -0.01663208, 0.00698853, 1.00036621, -0.00110468, -0.00012251, -0.02096361, -168.53764343, 136.71224976, 189.88111877, -0.01524475, -0.00386445, 0.99987632, -0.00138733, 0.01085298, 0.00048989, 0.00000000, 0.00000000, 0.00000000, 0.89309961, 0.44979022, 0.00767711, -0.00170291
424169231.046009, -0.01841736, 0.00875854, 0.99189758, 0.01295388, -0.00369327, -0.01971272, -168.02432251, 137.56776428, 190.04753113, -0.01525041, -0.00352032, 0.99987751, -0.00115278, 0.01121075, 0.00099224, 0.00000000, 0.00000000, 0.00000000, 0.89306676, 0.44985611, 0.00760210, -0.00185842
424169231.062197, -0.01614380, 0.00601196, 0.99336243, 0.01882908, -0.00371085, -0.01732386, -168.19543457, 138.08106995, 190.87960815, -0.01531057, -0.00288742, 0.99987864, 0.00308828, 0.00735824, -0.01403877, 0.00000000, 0.00000000, 0.00000000, 0.89306910, 0.44985208, 0.00748661, -0.00215455
424169231.077640, -0.01158142, 0.00932312, 0.99360657, 0.01642052, -0.00840307, -0.02324700, -168.36653137, 137.90997314, 191.04602051, -0.01531254, -0.00211191, 0.99988055, 0.00209843, 0.00925303, -0.00253556, 0.00000000, 0.00000000, 0.00000000, 0.89308398, 0.44982360, 0.00731312, -0.00250106
424169231.093475, -0.01589966, 0.00769043, 1.00137329, 0.00474735, -0.00130016, -0.01743066, -168.36653137, 137.90997314, 191.04602051, -0.01514975, -0.00158748, 0.99988395, 0.00356833, 0.01091060, -0.00627741, 0.00000000, 0.00000000, 0.00000000, 0.89306124, 0.44987067, 0.00712232, -0.00269901
424169231.109378, -0.01589966, 0.00769043, 1.00137329, 0.00708294, -0.00368315, -0.02326538, -170.41978455, 138.25218201, 190.71319580, -0.01516560, -0.00101477, 0.99988449, -0.00073406, 0.00870520, 0.00148881, 0.00000000, 0.00000000, 0.00000000, 0.89304381, 0.44990553, 0.00700045, -0.00295860
424169231.124855, -0.01701355, 0.01022339, 0.98292542, 0.01410490, -0.00605576, -0.02323182, -170.41978455, 139.96322632, 193.04302979, -0.01523584, -0.00048968, 0.99988383, -0.00177771, 0.01071307, -0.01695839, 0.00000000, 0.00000000, 0.00000000, 0.89304797, 0.44989691, 0.00691372, -0.00320881
424169231.141480, -0.01637268, 0.00669861, 1.00186157, 0.01887782, -0.00019468, -0.01493661, -171.27529907, 139.44990540, 192.21093750, -0.01530329, -0.00024876, 0.99988288, -0.00303777, 0.00606235, -0.00975530, 0.00000000, 0.00000000, 0.00000000, 0.89302950, 0.44993305, 0.00688951, -0.00333185
424169231.156689, -0.01261902, 0.01109314, 0.98788452, 0.00828643, -0.00253666, -0.02556155, -170.07757568, 137.90997314, 192.71018982, -0.01530264, 0.00033653, 0.99988288, 0.00134085, 0.00660622, -0.00427738, 0.00000000, 0.00000000, 0.00000000, 0.89300763, 0.44997644, 0.00675737, -0.00359339
424169231.171785, -0.01325989, 0.00909424, 1.00335693, 0.00840281, 0.00926460, -0.00441366, -170.59088135, 139.79211426, 190.54678345, -0.01528414, 0.00061441, 0.99988300, 0.00266512, 0.01047872, -0.01199848, 0.00000000, 0.00000000, 0.00000000, 0.89298706, 0.45001734, 0.00668641, -0.00371361
424169231.189060, -0.01325989, 0.00909424, 1.00335693, 0.01879126, -0.00604538, -0.01736328, -171.44641113, 137.90997314, 190.04753113, -0.01537957, 0.00105437, 0.99988115, 0.00211968, 0.00803987, 0.00347576, 0.00000000, 0.00000000, 0.00000000, 0.89300817, 0.44997445, 0.00663021, -0.00393122
424169231.204211, -0.01799011, 0.00950623, 0.98066711, 0.01063161, -0.00253506, -0.02320918, -171.44641113, 137.90997314, 190.04753113, -0.01550286, 0.00165472, 0.99987847, -0.00248726, 0.00785151, -0.01921134, 0.00000000, 0.00000000, 0.00000000, 0.89302306, 0.44994338, 0.00655034, -0.00422681
424169231.219566, -0.01434326, 0.00444031, 1.00556946, 0.00829468, 0.00105062, -0.01153522, -170.07757568, 138.25218201, 190.71319580, -0.01546700, 0.00190349, 0.99987859, -0.00072258, 0.00581746, -0.00549380, 0.00000000, 0.00000000, 0.00000000, 0.89297844, 0.45003198, 0.00647793, -0.00433047
424169231.236515, -0.01403809, 0.00843811, 0.98587036, 0.00831732, -0.00139070, -0.02903378, -169.39315796, 137.56776428, 190.71319580, -0.01560151, 0.00201586, 0.99987626, -0.00222076, 0.00329420, -0.00651383, 0.00000000, 0.00000000, 0.00000000, 0.89299314, 0.45000153, 0.00651285, -0.00441070
424169231.251289, -0.01469421, 0.00741577, 0.99986267, 0.01761867, -0.00604617, -0.01853960, -169.22206116, 137.05444336, 190.54678345, -0.01559342, 0.00219869, 0.99987602, 0.00155533, 0.00623942, -0.01400564, 0.00000000, 0.00000000, 0.00000000, 0.89296667, 0.45005392, 0.00646784, -0.00449090
424169231.267345, -0.01469421, 0.00741577, 0.99986267, 0.01528122, -0.00606215, -0.02321957, -168.53764343, 137.05444336, 191.21244812, -0.01554112, 0.00256426, 0.99987596, 0.00084691, 0.00485151, -0.00001327, 0.00000000, 0.00000000, 0.00000000, 0.89295689, 0.45007328, 0.00636212, -0.00464250
424169231.285804, -0.01759338, 0.01388550, 0.98895264, 0.00707495, -0.00366877, -0.02093751, -168.87985229, 135.68562317, 190.54678345, -0.01560128, 0.00316091, 0.99987328, -0.00199210, 0.01072459, -0.01092066, 0.00000000, 0.00000000, 0.00000000, 0.89296898, 0.45004783, 0.00625485, -0.00492227
424169231.300822, -0.01586914, 0.00622559, 0.99786377, 0.01531904, -0.00372763, -0.02318015, -168.36653137, 136.19892883, 189.71469116, -0.01563919, 0.00325840, 0.99987239, 0.00089920, 0.00516446, -0.00449580, 0.00000000, 0.00000000, 0.00000000, 0.89294791, 0.45008913, 0.00624960, -0.00497462
424169231.315729, -0.01521301, 0.00798035, 0.98840332, 0.00830533, -0.00136913, -0.02554185, -168.36653137, 136.19892883, 189.71469116, -0.01574826, 0.00347190, 0.99986994, -0.00193668, 0.00429483, -0.00997128, 0.00000000, 0.00000000, 0.00000000, 0.89295005, 0.45008353, 0.00625029, -0.00509446
424169231.330385, -0.01441956, 0.00666809, 1.00009155, 0.02118598, -0.00733275, -0.03481817, -169.56427002, 137.39665222, 191.54527283, -0.01580074, 0.00363164, 0.99986857, 0.00058773, 0.00434870, -0.01146524, 0.00000000, 0.00000000, 0.00000000, 0.89291787, 0.45014660, 0.00623741, -0.00517804
424169231.346515, -0.01441956, 0.00666809, 1.00009155, 0.01528388, -0.00846805, -0.03489860, -169.73536682, 138.93659973, 192.37736511, -0.01573142, 0.00388902, 0.99986869, 0.00131186, 0.00277907, 0.00022286, 0.00000000, 0.00000000, 0.00000000, 0.89287327, 0.45023512, 0.00614800, -0.00527797
424169231.363075, -0.01428223, 0.00915527, 0.98912048, 0.00956022, 0.00448956, -0.02077559, -170.41978455, 137.90997314, 191.37886047, -0.01564774, 0.00431499, 0.99986827, 0.00136552, 0.00484029, -0.01074777, 0.00000000, 0.00000000, 0.00000000, 0.89284405, 0.45029283, 0.00601439, -0.00544970
424169231.377828, -0.01153564, 0.00808716, 0.99560547, 0.01889380, -0.00022317, -0.01959261, -171.27529907, 139.10769653, 191.21244812, -0.01573530, 0.00439238, 0.99986655, 0.00006452, 0.00303865, -0.00300986, 0.00000000, 0.00000000, 0.00000000, 0.89282560, 0.45032845, 0.00603583, -0.00550421
424169231.393797, -0.01841736, 0.00851440, 0.98890686, 0.00840574, 0.01046036, 0.00026206, -169.73536682, 140.30543518, 190.71319580, -0.01567855, 0.00466090, 0.99986625, 0.00315109, 0.00347203, -0.00799915, 0.00000000, 0.00000000, 0.00000000, 0.89280916, 0.45036087, 0.00594983, -0.00561153
424169231.409421, -0.01373291, 0.00810242, 1.00186157, 0.00595217, -0.00135635, -0.02556608, -169.73536682, 140.30543518, 190.71319580, -0.01587619, 0.00481768, 0.99986237, -0.00078640, 0.00267438, -0.00799529, 0.00000000, 0.00000000, 0.00000000, 0.89283601, 0.45030549, 0.00600312, -0.00572566
424169231.426472, -0.01452637, 0.00889587, 0.98861694, 0.01173256, -0.00721051, -0.02327576, -170.07757568, 139.62101746, 192.71018982, -0.01590642, 0.00486449, 0.99986166, 0.00217351, 0.00323792, 0.00199992, 0.00000000, 0.00000000, 0.00000000, 0.89282741, 0.45032215, 0.00600597, -0.00575348
424169231.441217, -0.01452637, 0.00889587, 0.98861694, 0.01300262, -0.00017737, -0.01732573, -170.59088135, 137.73886108, 191.54527283, -0.01582869, 0.00504701, 0.99986196, 0.00130233, 0.00384886, -0.01124504, 0.00000000, 0.00000000, 0.00000000, 0.89280630, 0.45036419, 0.00592989, -0.00581774
424169231.457820, -0.01643372, 0.00843811, 0.99961853, 0.00940256, -0.00603739, -0.02444436, -171.44641113, 137.90997314, 190.71319580, -0.01587304, 0.00511988, 0.99986088, 0.00043114, 0.00136511, -0.00973334, 0.00000000, 0.00000000, 0.00000000, 0.89279470, 0.45038659, 0.00593313, -0.00586041
424169231.472667, -0.01768494, 0.00727844, 0.98565674, 0.01417148, -0.00016938, -0.01498534, -169.90646362, 137.05444336, 189.88111877, -0.01582411, 0.00535532, 0.99986047, -0.00067064, 0.00503592, -0.00172202, 0.00000000, 0.00000000, 0.00000000, 0.89276637, 0.45044249, 0.00585790, -0.00595486
424169231.488868, -0.01306152, 0.01029968, 1.00262451, 0.01302259, -0.00021305, -0.02314553, -169.39315796, 137.56776428, 192.04452515, -0.01596694, 0.00555346, 0.99985707, -0.00002427, 0.00389173, -0.00947013, 0.00000000, 0.00000000, 0.00000000, 0.89277257, 0.45042834, 0.00587713, -0.00607541
424169231.504526, -0.01306152, 0.01029968, 1.00262451, 0.02586995, -0.00491673, -0.01727060, -169.39315796, 138.59439087, 189.71469116, -0.01588712, 0.00573117, 0.99985737, 0.00282559, 0.00456852, 0.00276715, 0.00000000, 0.00000000, 0.00000000, 0.89271554, 0.45054151, 0.00580069, -0.00613749
424169231.519821, -0.01618958, 0.00749207, 0.98738098, 0.00836233, 0.00573405, -0.00912852, -169.39315796, 138.59439087, 189.71469116, -0.01590461, 0.00595538, 0.99985576, -0.00028496, 0.00153669, -0.01247480, 0.00000000, 0.00000000, 0.00000000, 0.89269834, 0.45057470, 0.00575775, -0.00624174
424169231.535889, -0.01661682, 0.00718689, 1.00460815, 0.01180819, -0.00254145, -0.02319693, -169.56427002, 138.42327881, 190.21394348, -0.01603165, 0.00604332, 0.99985319, -0.00063094, 0.00118935, -0.00623140, 0.00000000, 0.00000000, 0.00000000, 0.89269772, 0.45057452, 0.00579465, -0.00630962
424169231.551770, -0.01591492, 0.00604248, 0.98538208, 0.00942945, -0.00488450, -0.02675252, -169.05094910, 136.88334656, 191.04602051, -0.01601444, 0.00613963, 0.99985290, 0.00150333, 0.00274098, -0.00497986, 0.00000000, 0.00000000, 0.00000000, 0.89265714, 0.45065474, 0.00576470, -0.00634925
424169231.567478, -0.01373291, 0.00836182, 1.00212097, 0.01176132, -0.00365838, -0.01506870, -167.51101685, 136.37004089, 189.21545410, -0.01598977, 0.00622150, 0.99985278, -0.00044395, 0.00149945, -0.00447621, 0.00000000, 0.00000000, 0.00000000, 0.89262049, 0.45072726, 0.00573472, -0.00638070
424169231.584114, -0.01770020, 0.00778198, 0.98590088, 0.01524899, -0.00960709, -0.03026230, -168.36653137, 138.59439087, 192.04452515, -0.01596629, 0.00630818, 0.99985266, 0.00223338, 0.00205364, 0.00226834, 0.00000000, 0.00000000, 0.00000000, 0.89259241, 0.45078277, 0.00570431, -0.00641445
424169231.599223, -0.01770020, 0.00778198, 0.98590088, 0.00829149, -0.00374654, -0.03256487, -167.85322571, 138.08106995, 191.54527283, -0.01593489, 0.00643781, 0.99985230, -0.00176530, 0.00134417, -0.01395143, 0.00000000, 0.00000000, 0.00000000, 0.89257098, 0.45082503, 0.00566077, -0.00646550
424169231.617362, -0.01322937, 0.00788879, 0.99836731, 0.01419997, 0.00338221, -0.00677908, -170.24867249, 138.08106995, 191.54527283, -0.01589742, 0.00652807, 0.99985230, -0.00129923, 0.00265772, -0.00070681, 0.00000000, 0.00000000, 0.00000000, 0.89253287, 0.45090047, 0.00562315, -0.00649782
424169231.630880, -0.01496887, 0.00697327, 0.99061584, 0.01533395, -0.00255344, -0.02199638, -170.24867249, 138.08106995, 191.54527283, -0.01592976, 0.00661803, 0.99985123, 0.00051839, -0.00110961, -0.01074599, 0.00000000, 0.00000000, 0.00000000, 0.89254217, 0.45088145, 0.00561744, -0.00654514
424169231.646551, -0.01396179, 0.00740051, 0.99784851, 0.00833063, 0.00098643, -0.02201076, -169.05094910, 138.93659973, 191.37886047, -0.01601326, 0.00662202, 0.99984986, 0.00011360, 0.00036651, -0.00422912, 0.00000000, 0.00000000, 0.00000000, 0.89252791, 0.45090893, 0.00565360, -0.00656592
424169231.663278, -0.01739502, 0.00749207, 0.99412537, 0.00485814, 0.00810906, -0.00563365, -170.24867249, 139.44990540, 191.87811279, -0.01598957, 0.00670928, 0.99984968, 0.00202778, 0.00069123, -0.00200114, 0.00000000, 0.00000000, 0.00000000, 0.89251081, 0.45094266, 0.00562311, -0.00659974
424169231.677975, -0.01739502, 0.00749207, 0.99412537, 0.01537736, 0.00217314, -0.01260607, -169.22206116, 138.76548767, 191.87811279, -0.01610140, 0.00677508, 0.99984741, -0.00129362, 0.00071698, -0.00572204, 0.00000000, 0.00000000, 0.00000000, 0.89251429, 0.45093454, 0.00565824, -0.00665427
424169231.693920, -0.01647949, 0.01014709, 0.99789429, 0.01299569, -0.00136594, -0.02083737, -170.59088135, 137.73886108, 191.21244812, -0.01627601, 0.00682469, 0.99984425, 0.00007117, 0.00136928, -0.00646656, 0.00000000, 0.00000000, 0.00000000, 0.89254697, 0.45086807, 0.00572548, -0.00671537
424169231.709850, -0.01422119, 0.00720215, 0.98686218, 0.00482165, 0.00457185, -0.01151258, -170.59088135, 137.73886108, 191.21244812, -0.01630124, 0.00697937, 0.99984276, 0.00133237, 0.00116882, -0.00220788, 0.00000000, 0.00000000, 0.00000000, 0.89252569, 0.45090938, 0.00570155, -0.00679036
424169231.726450, -0.01580811, 0.00474548, 1.00309753, 0.01887382, -0.00018749, -0.01377280, -169.73536682, 139.62101746, 190.71319580, -0.01642344, 0.00703539, 0.99984038, -0.00104787, 0.00338636, -0.00316679, 0.00000000, 0.00000000, 0.00000000, 0.89252555, 0.45090834, 0.00574347, -0.00684291
424169231.741232, -0.01338196, 0.01135254, 0.98567200, 0.00835354, 0.00214677, -0.02315512, -171.27529907, 139.10769653, 192.21093750, -0.01647008, 0.00710303, 0.99983913, 0.00066198, -0.00235755, 0.00325841, 0.00000000, 0.00000000, 0.00000000, 0.89253401, 0.45089090, 0.00574917, -0.00688351
424169231.757635, -0.01338196, 0.01135254, 0.98567200, 0.01410756, -0.00846166, -0.03491085, -169.22206116, 137.73886108, 191.54527283, -0.01641284, 0.00732531, 0.99983847, 0.00303089, 0.00402722, -0.01416647, 0.00000000, 0.00000000, 0.00000000, 0.89251909, 0.45092007, 0.00567328, -0.00697000
424169231.772986, -0.01426697, 0.01033020, 1.00361633, 0.01529800, -0.00248926, -0.01152083, -169.73536682, 139.62101746, 191.37886047, -0.01634441, 0.00741823, 0.99983889, 0.00207744, 0.00291197, 0.00377743, 0.00000000, 0.00000000, 0.00000000, 0.89247523, 0.45100712, 0.00562111, -0.00699658
424169231.788213, -0.01304626, 0.00769043, 0.98362732, 0.01879925, -0.00605949, -0.01969115, -169.05094910, 137.90997314, 190.71319580, -0.01627150, 0.00754422, 0.99983913, 0.00487319, 0.00277073, -0.01045927, 0.00000000, 0.00000000, 0.00000000, 0.89246189, 0.45103364, 0.00555995, -0.00703653
424169231.804764, -0.01441956, 0.00712585, 1.00608826, 0.00829042, -0.00254385, -0.02672535, -168.70874023, 136.54113770, 191.04602051, -0.01620807, 0.00772085, 0.99983883, 0.00078144, 0.00019847, 0.00377750, 0.00000000, 0.00000000, 0.00000000, 0.89245251, 0.45105204, 0.00549166, -0.00710116
424169231.819704, -0.01774597, 0.01020813, 0.98966980, 0.00944437, -0.00370978, -0.02556901, -168.70874023, 136.54113770, 191.04602051, -0.01614943, 0.00775746, 0.99983948, 0.00172988, -0.00063160, 0.00624876, 0.00000000, 0.00000000, 0.00000000, 0.89241680, 0.45112305, 0.00545667, -0.00710470
424169231.836855, -0.01774597, 0.01020813, 0.98966980, 0.01066676, -0.00139603, -0.02784521, -167.51101685, 137.73886108, 190.21394348, -0.01614567, 0.00781898, 0.99983907, -0.00160030, 0.00238915, -0.01016928, 0.00000000, 0.00000000, 0.00000000, 0.89239338, 0.45116915, 0.00544074, -0.00713159
424169231.852502, -0.01818848, 0.00971985, 0.99491882, 0.01296587, -0.00371484, -0.02320466, -169.22206116, 137.05444336, 189.88111877, -0.01622902, 0.00779939, 0.99983788, -0.00195946, 0.00192046, -0.00491906, 0.00000000, 0.00000000, 0.00000000, 0.89237566, 0.45120352, 0.00548208, -0.00714187
424169231.868003, -0.01322937, 0.00741577, 0.99111938, 0.00946248, 0.00226209, -0.00335558, -169.73536682, 136.88334656, 189.38186646, -0.01624134, 0.00793429, 0.99983662, 0.00044850, 0.00224332, -0.01468342, 0.00000000, 0.00000000, 0.00000000, 0.89234673, 0.45126005, 0.00545669, -0.00720519
424169231.883813, -0.01452637, 0.00962830, 0.99263000, 0.01525725, -0.00601928, -0.01623570, -170.59088135, 137.73886108, 190.87960815, -0.01620305, 0.00788473, 0.99983764, -0.00007808, -0.00437520, 0.00298524, 0.00000000, 0.00000000, 0.00000000, 0.89236231, 0.45122979, 0.00545102, -0.00717425
424169231.899406, -0.01445007, 0.00740051, 0.99784851, 0.01068007, 0.00098111, -0.02082246, -167.51101685, 136.37004089, 190.87960815, -0.01622888, 0.00800411, 0.99983627, 0.00170251, 0.00162419, -0.00720626, 0.00000000, 0.00000000, 0.00000000, 0.89236948, 0.45121485, 0.00543574, -0.00723326
424169231.918418, -0.01548767, 0.00868225, 0.99389648, 0.00831599, -0.00018775, -0.02319427, -168.53764343, 138.76548767, 191.87811279, -0.01623124, 0.00808006, 0.99983561, 0.00178116, -0.00067955, -0.00198711, 0.00000000, 0.00000000, 0.00000000, 0.89235024, 0.45125254, 0.00541935, -0.00726791
424169231.930798, -0.01548767, 0.00868225, 0.99389648, 0.01059379, -0.00486959, -0.02324860, -168.53764343, 138.76548767, 191.87811279, -0.01629362, 0.00812087, 0.99983430, 0.00080595, 0.00056138, -0.00593779, 0.00000000, 0.00000000, 0.00000000, 0.89235322, 0.45124591, 0.00543803, -0.00730016
424169231.946425, -0.01539612, 0.00621033, 0.99711609, 0.01999874, -0.00490608, -0.02082326, -170.93309021, 138.76548767, 190.54678345, -0.01623913, 0.00818180, 0.99983466, 0.00073620, 0.00028683, -0.01344550, 0.00000000, 0.00000000, 0.00000000, 0.89230906, 0.45133343, 0.00539925, -0.00731558
424169231.963695, -0.01272583, 0.00666809, 0.99111938, 0.01998969, -0.00368848, -0.01265561, -168.70874023, 138.59439087, 191.37886047, -0.01618893, 0.00828285, 0.99983466, 0.00343258, 0.00007897, -0.00097905, 0.00000000, 0.00000000, 0.00000000, 0.89229974, 0.45135185, 0.00535389, -0.00734945
424169231.978269, -0.01542664, 0.00743103, 0.99685669, 0.01178129, -0.00369407, -0.02088877, -169.22206116, 139.44990540, 191.54527283, -0.01612956, 0.00841804, 0.99983448, 0.00340373, -0.00174995, -0.00871509, 0.00000000, 0.00000000, 0.00000000, 0.89229720, 0.45135678, 0.00529685, -0.00739640
424169231.994207, -0.01542664, 0.00743103, 0.99685669, 0.01177463, -0.00488317, -0.02440015, -170.41978455, 137.90997314, 191.71170044, -0.01615296, 0.00845981, 0.99983376, 0.00072633, -0.00102878, -0.00297705, 0.00000000, 0.00000000, 0.00000000, 0.89228620, 0.45137812, 0.00529769, -0.00742045
424169232.010332, -0.01443481, 0.00500488, 0.98535156, 0.01293977, -0.00126607, -0.00454202, -170.41978455, 138.93659973, 191.71170044, -0.01611448, 0.00846532, 0.99983430, 0.00167967, -0.00346044, -0.01448275, 0.00000000, 0.00000000, 0.00000000, 0.89226985, 0.45141076, 0.00527900, -0.00741441
424169232.026593, -0.01544189, 0.00840759, 1.00312805, 0.01876170, -0.00839402, -0.01973056, -170.41978455, 138.93659973, 191.71170044, -0.01608481, 0.00853873, 0.99983418, 0.00136008, -0.00133658, -0.00946247, 0.00000000, 0.00000000, 0.00000000, 0.89226584, 0.45141860, 0.00524913, -0.00744052
424169232.041466, -0.01506042, 0.00991821, 0.98390198, 0.00707629, -0.00487199, -0.02677675, -170.24867249, 137.73886108, 191.54527283, -0.01599377, 0.00865273, 0.99983466, 0.00129956, -0.00195412, -0.00471746, 0.00000000, 0.00000000, 0.00000000, 0.89225069, 0.45144882, 0.00518252, -0.00747100
424169232.057077, -0.01768494, 0.00894165, 0.99989319, 0.00839428, 0.00567706, -0.01844026, -170.07757568, 138.59439087, 192.37736511, -0.01595578, 0.00875603, 0.99983436, -0.00029483, 0.00114693, -0.00444251, 0.00000000, 0.00000000, 0.00000000, 0.89221478, 0.45151961, 0.00514166, -0.00750892
424169232.073197, -0.01768494, 0.00894165, 0.99989319, 0.00943744, -0.00489888, -0.02908065, -168.53764343, 137.05444336, 190.21394348, -0.01600092, 0.00880253, 0.99983323, -0.00168402, 0.00013912, 0.00005996, 0.00000000, 0.00000000, 0.00000000, 0.89219542, 0.45155725, 0.00515098, -0.00754008
424169232.089500, -0.01498413, 0.00698853, 0.98487854, 0.01173415, -0.00841319, -0.02911527, -169.05094910, 137.56776428, 192.37736511, -0.01596786, 0.00889562, 0.99983293, 0.00098373, -0.00190710, -0.01495439, 0.00000000, 0.00000000, 0.00000000, 0.89218174, 0.45158411, 0.00511498, -0.00757431
424169232.104601, -0.01686096, 0.00671387, 1.00285339, 0.01528654, -0.00727256, -0.03022288, -168.36653137, 136.54113770, 190.38035583, -0.01590103, 0.00890371, 0.99983394, 0.00247329, -0.00319692, -0.00824152, 0.00000000, 0.00000000, 0.00000000, 0.89213631, 0.45167440, 0.00508258, -0.00756333
424169232.120123, -0.01380920, 0.00939941, 0.98661804, 0.01647698, -0.00490155, -0.02318788, -168.36653137, 136.54113770, 190.38035583, -0.01593835, 0.00900465, 0.99983245, -0.00101416, -0.00004774, -0.00744656, 0.00000000, 0.00000000, 0.00000000, 0.89211539, 0.45171489, 0.00507608, -0.00761703
424169232.136426, -0.01376343, 0.00885010, 0.99885559, 0.01056423, -0.00721823, -0.02561588, -167.51101685, 137.05444336, 190.87960815, -0.01596745, 0.00908781, 0.99983120, -0.00095455, -0.00089384, -0.00021268, 0.00000000, 0.00000000, 0.00000000, 0.89212112, 0.45170290, 0.00507038, -0.00766063
424169232.152418, -0.01599121, 0.00990295, 0.99264526, 0.01532196, -0.00253187, -0.01850471, -167.33990479, 136.54113770, 189.71469116, -0.01588644, 0.00913207, 0.99983209, 0.00212301, -0.00028198, -0.00097651, 0.00000000, 0.00000000, 0.00000000, 0.89208949, 0.45176585, 0.00502370, -0.00766243
424169232.168397, -0.01599121, 0.00990295, 0.99264526, 0.01414272, -0.00372123, -0.02319240, -167.51101685, 137.73886108, 190.87960815, -0.01590070, 0.00922003, 0.99983108, -0.00009051, 0.00068292, -0.00718580, 0.00000000, 0.00000000, 0.00000000, 0.89208386, 0.45177641, 0.00501010, -0.00770495
424169232.183996, -0.01416016, 0.00617981, 0.99684143, 0.00845767, 0.01036742, -0.01486923, -168.87985229, 137.05444336, 191.54527283, -0.01587856, 0.00927090, 0.99983096, -0.00069249, -0.00400662, 0.00100829, 0.00000000, 0.00000000, 0.00000000, 0.89205609, 0.45183117, 0.00498826, -0.00772295
424169232.199638, -0.01452637, 0.00938416, 0.99487305, 0.02113644, -0.00964570, -0.03136565, -170.24867249, 137.73886108, 189.88111877, -0.01595255, 0.00925091, 0.99982995, 0.00243327, -0.00082806, -0.01244897, 0.00000000, 0.00000000, 0.00000000, 0.89209271, 0.45175832, 0.00502642, -0.00773034
424169232.216483, -0.01324463, 0.00811768, 0.99662781, 0.02232475, -0.00967367, -0.03484533, -171.95971680, 138.76548767, 192.54377747, -0.01588193, 0.00938882, 0.99982977, 0.00091306, -0.00124062, -0.00245430, 0.00000000, 0.00000000, 0.00000000, 0.89206509, 0.45181276, 0.00496329, -0.00777621
424169232.231458, -0.01292419, 0.00469971, 0.99258423, 0.00481073, 0.00339020, -0.01386016, -171.95971680, 138.76548767, 192.54377747, -0.01582523, 0.00945350, 0.99983007, 0.00258060, -0.00133583, -0.00320227, 0.00000000, 0.00000000, 0.00000000, 0.89201546, 0.45191090, 0.00492252, -0.00779279
424169232.246801, -0.01292419, 0.00469971, 0.99258423, 0.01532596, -0.00253906, -0.01966851, -170.59088135, 138.76548767, 193.54226685, -0.01572398, 0.00940338, 0.99983215, 0.00279978, -0.00470367, -0.00724792, 0.00000000, 0.00000000, 0.00000000, 0.89198125, 0.45197956, 0.00488809, -0.00774793
424169232.262933, -0.01496887, 0.00816345, 0.99612427, 0.01761175, -0.00723528, -0.02205097, -170.07757568, 139.27880859, 194.04151917, -0.01578061, 0.00946130, 0.99983072, -0.00091250, -0.00076379, -0.00219583, 0.00000000, 0.00000000, 0.00000000, 0.89196884, 0.45200325, 0.00490005, -0.00778670
424169232.278688, -0.01278687, 0.00886536, 0.99113464, 0.01175280, -0.00724620, -0.02909557, -169.90646362, 138.76548767, 193.87510681, -0.01572155, 0.00947260, 0.99983156, -0.00014759, -0.00416254, -0.01171813, 0.00000000, 0.00000000, 0.00000000, 0.89194670, 0.45204740, 0.00487077, -0.00777863
424169232.294380, -0.01574707, 0.00917053, 0.99488831, 0.00824861, -0.00487119, -0.02560097, -169.56427002, 137.05444336, 191.87811279, -0.01562616, 0.00961724, 0.99983168, -0.00057867, 0.00002631, 0.00331166, 0.00000000, 0.00000000, 0.00000000, 0.89190655, 0.45212667, 0.00479484, -0.00782200
424169232.310269, -0.01596069, 0.00894165, 0.99188232, 0.01301700, -0.00260484, -0.03249642, -169.22206116, 135.68562317, 192.54377747, -0.01565766, 0.00959348, 0.99983138, -0.00008941, -0.00042295, -0.00494308, 0.00000000, 0.00000000, 0.00000000, 0.89189155, 0.45215613, 0.00481400, -0.00781868
424169232.326471, -0.01596069, 0.00894165, 0.99188232, 0.01648523, -0.00491566, -0.02551575, -167.85322571, 137.73886108, 192.87660217, -0.01563491, 0.00963867, 0.99983132, -0.00032578, -0.00069702, -0.00794898, 0.00000000, 0.00000000, 0.00000000, 0.89185972, 0.45221885, 0.00479308, -0.00783403
424169232.341754, -0.01571655, 0.00772095, 0.98963928, 0.02115003, -0.00726857, -0.02434236, -167.85322571, 137.73886108, 192.87660217, -0.01565380, 0.00963861, 0.99983102, 0.00053234, -0.00344354, 0.00152702, 0.00000000, 0.00000000, 0.00000000, 0.89184051, 0.45225657, 0.00480119, -0.00783848
424169232.358094, -0.01249695, 0.00738525, 0.99334717, 0.00944304, -0.00250710, -0.01972950, -169.90646362, 137.39665222, 191.87811279, -0.01562083, 0.00976985, 0.99983025, 0.00034679, 0.00014836, -0.01292230, 0.00000000, 0.00000000, 0.00000000, 0.89182655, 0.45228369, 0.00475657, -0.00788970
424169232.373412, -0.01379395, 0.00912476, 0.99362183, 0.01763758, -0.00487918, -0.01851989, -168.87985229, 136.37004089, 191.21244812, -0.01553041, 0.00977843, 0.99983156, 0.00011904, -0.00234739, 0.00027523, 0.00000000, 0.00000000, 0.00000000, 0.89178798, 0.45236046, 0.00471363, -0.00787348
424169232.389806, -0.01628113, 0.01136780, 0.99667358, 0.01423300, 0.00212227, -0.02193007, -167.85322571, 137.73886108, 190.21394348, -0.01555542, 0.00986336, 0.99983037, 0.00176148, -0.00073860, -0.00620853, 0.00000000, 0.00000000, 0.00000000, 0.89178683, 0.45236205, 0.00470555, -0.00791702
424169232.405058, -0.01628113, 0.01136780, 0.99667358, 0.01766182, -0.00492205, -0.02550350, -168.87985229, 137.39665222, 191.54527283, -0.01556201, 0.00994214, 0.99982947, -0.00071912, 0.00142566, -0.00315589, 0.00000000, 0.00000000, 0.00000000, 0.89174929, 0.45243556, 0.00469002, -0.00795403
424169232.420307, -0.01370239, 0.00546265, 0.98959351, 0.01068007, 0.00098111, -0.02082246, -166.99769592, 138.25218201, 191.71170044, -0.01554511, 0.00998209, 0.99982935, 0.00184271, -0.00451944, -0.01023583, 0.00000000, 0.00000000, 0.00000000, 0.89173842, 0.45245692, 0.00467325, -0.00796813
424169232.436658, -0.01542664, 0.00743103, 0.99960327, 0.00832131, -0.00139789, -0.03019758, -166.99769592, 138.25218201, 191.71170044, -0.01551612, 0.00995789, 0.99983001, 0.00179846, -0.00376282, -0.00922944, 0.00000000, 0.00000000, 0.00000000, 0.89170956, 0.45251418, 0.00466529, -0.00795108
424169232.452409, -0.01573181, 0.00869751, 0.99114990, 0.00249139, 0.00574470, -0.01268091, -170.41978455, 137.56776428, 192.71018982, -0.01550203, 0.00988365, 0.99983096, 0.00106722, -0.00345970, -0.00147894, 0.00000000, 0.00000000, 0.00000000, 0.89166683, 0.45259889, 0.00467506, -0.00791523
424169232.467990, -0.01443481, 0.00691223, 1.00210571, 0.01538828, 0.00335425, -0.01025850, -170.07757568, 138.93659973, 193.04302979, -0.01562199, 0.00988034, 0.99982917, -0.00010983, -0.00118283, -0.00867925, 0.00000000, 0.00000000, 0.00000000, 0.89166159, 0.45260821, 0.00472920, -0.00794096
424169232.484478, -0.01443481, 0.00691223, 1.00210571, 0.00128577, 0.00219950, -0.02090022, -170.24867249, 137.39665222, 192.87660217, -0.01570542, 0.00985093, 0.99982816, 0.00127061, -0.00293870, 0.00227758, 0.00000000, 0.00000000, 0.00000000, 0.89166595, 0.45259906, 0.00477314, -0.00794668
424169232.499799, -0.01451111, 0.00794983, 0.98612976, 0.01410064, -0.00965050, -0.03842249, -169.05094910, 137.90997314, 192.71018982, -0.01566430, 0.00984347, 0.99982888, 0.00115319, -0.00189364, -0.01369909, 0.00000000, 0.00000000, 0.00000000, 0.89165237, 0.45262620, 0.00475626, -0.00793419
424169232.516610, -0.01542664, 0.00813293, 1.00636292, 0.01174880, -0.00723900, -0.02793150, -170.59088135, 137.73886108, 193.20944214, -0.01563141, 0.00990488, 0.99982876, -0.00032928, -0.00120737, -0.00619168, 0.00000000, 0.00000000, 0.00000000, 0.89161905, 0.45269179, 0.00472711, -0.00795448
424169232.531200, -0.01699829, 0.00971985, 0.98567200, 0.02238973, -0.00258433, -0.02075961, -170.24867249, 139.10769653, 192.21093750, -0.01560583, 0.00992109, 0.99982899, -0.00035487, -0.00026228, -0.00268239, 0.00000000, 0.00000000, 0.00000000, 0.89160247, 0.45272458, 0.00471174, -0.00795609
424169232.546857, -0.01589966, 0.00840759, 1.00462341, 0.01881816, -0.00489249, -0.01967144, -170.24867249, 139.10769653, 192.21093750, -0.01570279, 0.01008879, 0.99982578, -0.00129550, -0.00036894, -0.01415381, 0.00000000, 0.00000000, 0.00000000, 0.89159541, 0.45273671, 0.00471690, -0.00805287
424169232.563007, -0.01589966, 0.00840759, 1.00462341, 0.01060870, -0.00369487, -0.02206482, -169.39315796, 138.25218201, 192.71018982, -0.01567654, 0.01010670, 0.99982601, -0.00022312, -0.00169911, 0.00479738, 0.00000000, 0.00000000, 0.00000000, 0.89159400, 0.45273961, 0.00470111, -0.00805493
424169232.578595, -0.01596069, 0.00822449, 0.98713684, 0.01408200, -0.00721610, -0.02208746, -169.56427002, 138.08106995, 191.54527283, -0.01571214, 0.01013095, 0.99982524, -0.00024855, -0.00190646, -0.01268839, 0.00000000, 0.00000000, 0.00000000, 0.89156455, 0.45279715, 0.00471097, -0.00807411
424169232.595125, -0.01542664, 0.00695801, 0.99786377, 0.01532196, -0.00253187, -0.01850471, -168.70874023, 138.25218201, 191.37886047, -0.01559246, 0.01019656, 0.99982643, 0.00333966, -0.00235354, 0.00203513, 0.00000000, 0.00000000, 0.00000000, 0.89152866, 0.45286850, 0.00464212, -0.00807663
424169232.610277, -0.01445007, 0.00643921, 0.99435425, 0.01764957, -0.00490075, -0.02201156, -169.05094910, 137.22555542, 190.04753113, -0.01559522, 0.01018902, 0.99982649, -0.00088427, -0.00194927, -0.01743511, 0.00000000, 0.00000000, 0.00000000, 0.89150366, 0.45291771, 0.00464461, -0.00807415
424169232.626400, -0.01350403, 0.00791931, 0.98986816, 0.01421196, 0.00336064, -0.01027075, -167.85322571, 136.71224976, 190.21394348, -0.01556920, 0.01020918, 0.99982667, 0.00111912, -0.00376998, -0.00547242, 0.00000000, 0.00000000, 0.00000000, 0.89148992, 0.45294487, 0.00462819, -0.00807739
424169232.641910, -0.01350403, 0.00791931, 0.98986816, 0.01296480, -0.00251216, -0.01736514, -167.85322571, 136.71224976, 190.21394348, -0.01560221, 0.01027849, 0.99982542, 0.00209818, -0.00235918, -0.00995728, 0.00000000, 0.00000000, 0.00000000, 0.89150119, 0.45292201, 0.00462742, -0.00811564
424169232.658195, -0.01693726, 0.00941467, 1.00337219, 0.01187157, 0.00214944, -0.01962643, -168.87985229, 138.42327881, 191.87811279, -0.01559565, 0.01027075, 0.99982566, -0.00134161, -0.00085608, 0.00354656, 0.00000000, 0.00000000, 0.00000000, 0.89146234, 0.45299858, 0.00462555, -0.00811110
424169232.673481, -0.01600647, 0.00970459, 0.98616028, 0.01289875, -0.00839801, -0.02561135, -168.19543457, 136.37004089, 191.21244812, -0.01569013, 0.01030520, 0.99982381, -0.00170489, -0.00230959, -0.00368427, 0.00000000, 0.00000000, 0.00000000, 0.89147487, 0.45297290, 0.00466010, -0.00814773
424169232.689709, -0.01434326, 0.00468445, 1.00532532, 0.01416349, -0.00015500, -0.01265747, -168.53764343, 137.73886108, 190.21394348, -0.01559772, 0.01041133, 0.99982417, 0.00154438, 0.00019353, -0.00344048, 0.00000000, 0.00000000, 0.00000000, 0.89143872, 0.45304423, 0.00459421, -0.00817448
424169232.705099, -0.01478577, 0.00894165, 0.98414612, 0.01763359, -0.00487225, -0.01735582, -169.22206116, 138.76548767, 191.87811279, -0.01564551, 0.01032622, 0.99982429, -0.00011682, -0.00089629, -0.00994086, 0.00000000, 0.00000000, 0.00000000, 0.89144604, 0.45302990, 0.00463493, -0.00814729
424169232.720744, -0.01478577, 0.00894165, 0.98414612, 0.01763359, -0.00487225, -0.01735582, -169.56427002, 137.39665222, 191.54527283, -0.01560180, 0.01046681, 0.99982351, 0.00081603, -0.00152516, -0.01567738, 0.00000000, 0.00000000, 0.00000000, 0.89144040, 0.45304058, 0.00458350, -0.00820012
424169232.737720, -0.01667786, 0.00891113, 1.00361633, 0.00942013, -0.00366691, -0.01858540, -169.22206116, 139.10769653, 190.87960815, -0.01558497, 0.01034165, 0.99982506, -0.00109288, -0.00143052, 0.00379127, 0.00000000, 0.00000000, 0.00000000, 0.89141190, 0.45309751, 0.00460383, -0.00814080
424169232.752303, -0.01257324, 0.00938416, 0.98661804, 0.01411981, -0.00488157, -0.02204804, -169.22206116, 139.10769653, 190.87960815, -0.01561378, 0.01026254, 0.99982542, 0.00070594, -0.00499826, -0.00971313, 0.00000000, 0.00000000, 0.00000000, 0.89140339, 0.45311446, 0.00463444, -0.00811215
424169232.768321, -0.01664734, 0.00721741, 0.99861145, 0.00600223, 0.00455853, -0.01266413, -170.76199341, 139.27880859, 192.04452515, -0.01555023, 0.01034965, 0.99982554, -0.00012055, -0.00267448, 0.00330253, 0.00000000, 0.00000000, 0.00000000, 0.89138638, 0.45314797, 0.00458607, -0.00813676
424169232.784584, -0.01622009, 0.00892639, 0.99313354, 0.01294190, -0.00367197, -0.01622078, -169.22206116, 138.42327881, 191.87811279, -0.01564548, 0.01031908, 0.99982435, -0.00092557, 0.00086561, -0.01816542, 0.00000000, 0.00000000, 0.00000000, 0.89138876, 0.45314264, 0.00463550, -0.00814469
424169232.800194, -0.01622009, 0.00892639, 0.99313354, 0.01299969, -0.00137313, -0.02200117, -171.95971680, 139.79211426, 190.54678345, -0.01569970, 0.01032569, 0.99982345, -0.00052039, -0.00139930, -0.00668989, 0.00000000, 0.00000000, 0.00000000, 0.89139815, 0.45312367, 0.00465835, -0.00815983
424169232.816906, -0.01521301, 0.00819397, 0.99188232, 0.01412807, -0.00489596, -0.02437591, -169.73536682, 138.93659973, 192.04452515, -0.01566572, 0.01035746, 0.99982363, 0.00045271, -0.00216349, -0.00794131, 0.00000000, 0.00000000, 0.00000000, 0.89140205, 0.45311611, 0.00463607, -0.00816625
424169232.831431, -0.01763916, 0.00772095, 1.00314331, 0.01763599, -0.00727815, -0.02903485, -169.22206116, 138.42327881, 189.88111877, -0.01566749, 0.01037181, 0.99982345, -0.00055260, -0.00236095, -0.01593674, 0.00000000, 0.00000000, 0.00000000, 0.89137807, 0.45316317, 0.00463318, -0.00817329
424169232.847290, -0.01699829, 0.00923157, 0.98565674, 0.02109224, -0.00956714, -0.01856223, -168.53764343, 138.08106995, 191.21244812, -0.01565700, 0.01036637, 0.99982369, 0.00030666, -0.00562088, -0.00298225, 0.00000000, 0.00000000, 0.00000000, 0.89134161, 0.45323502, 0.00462908, -0.00816886
424169232.863620, -0.01615906, 0.00793457, 1.00086975, 0.02112313, -0.00842118, -0.02203420, -168.53764343, 138.08106995, 191.21244812, -0.01562812, 0.01045380, 0.99982321, -0.00005791, -0.00250397, -0.00369896, 0.00000000, 0.00000000, 0.00000000, 0.89132171, 0.45327388, 0.00459603, -0.00820148
424169232.879545, -0.01425171, 0.00816345, 0.98912048, 0.00820946, -0.00600250, -0.01980087, -167.16880798, 136.02783203, 192.21093750, -0.01554489, 0.01054779, 0.99982351, -0.00061417, -0.00261322, 0.00104622, 0.00000000, 0.00000000, 0.00000000, 0.89128934, 0.45333770, 0.00453704, -0.00822483
424169232.894872, -0.01425171, 0.00816345, 0.98912048, 0.01294296, -0.00487518, -0.02206029, -168.87985229, 136.71224976, 190.87960815, -0.01549304, 0.01055878, 0.99982423, 0.00124134, -0.00239533, -0.01070374, 0.00000000, 0.00000000, 0.00000000, 0.89127656, 0.45336321, 0.00451121, -0.00821811
424169232.910561, -0.01426697, 0.00914001, 0.99336243, 0.01996785, -0.00605177, -0.01735103, -166.65548706, 137.56776428, 190.04753113, -0.01546729, 0.01058025, 0.99982440, -0.00026452, -0.00142498, -0.00194537, 0.00000000, 0.00000000, 0.00000000, 0.89124862, 0.45341824, 0.00449435, -0.00822212
424169232.926333, -0.01672363, 0.00968933, 0.99514771, 0.01999208, -0.00609464, -0.02433463, -167.16880798, 137.05444336, 190.87960815, -0.01538174, 0.01063131, 0.99982518, -0.00028904, -0.00439047, -0.00945347, 0.00000000, 0.00000000, 0.00000000, 0.89122611, 0.45346291, 0.00444424, -0.00822570
424169232.942064, -0.01617432, 0.00746155, 0.99311829, 0.01419012, 0.00099762, -0.01496590, -168.36653137, 137.56776428, 191.04602051, -0.01544029, 0.01065670, 0.99982399, -0.00219887, -0.00342403, -0.00069375, 0.00000000, 0.00000000, 0.00000000, 0.89121735, 0.45347947, 0.00446442, -0.00825037
424169232.959051, -0.01229858, 0.00810242, 0.99511719, 0.01412115, -0.00608426, -0.02788756, -169.05094910, 136.54113770, 190.38035583, -0.01549067, 0.01072529, 0.99982250, -0.00068365, -0.00326374, -0.00670420, 0.00000000, 0.00000000, 0.00000000, 0.89120603, 0.45350089, 0.00447112, -0.00829247
424169232.973770, -0.01229858, 0.00810242, 0.99511719, 0.00945236, -0.00372416, -0.02789688, -169.05094910, 136.54113770, 190.38035583, -0.01537146, 0.01066619, 0.99982494, 0.00307288, -0.00256378, -0.00470777, 0.00000000, 0.00000000, 0.00000000, 0.89117552, 0.45356219, 0.00443083, -0.00823940
424169232.989784, -0.01426697, 0.00962830, 0.99337769, 0.01186891, 0.00095315, -0.02430188, -168.36653137, 138.59439087, 190.38035583, -0.01538958, 0.01068258, 0.99982452, 0.00016131, -0.00222921, -0.00919340, 0.00000000, 0.00000000, 0.00000000, 0.89116157, 0.45358937, 0.00443494, -0.00825095
424169233.005636, -0.01451111, 0.00888062, 0.99536133, 0.02122433, -0.00139603, -0.01842428, -169.05094910, 138.25218201, 190.38035583, -0.01542337, 0.01074773, 0.99982327, -0.00006430, -0.00133306, -0.00343962, 0.00000000, 0.00000000, 0.00000000, 0.89113946, 0.45363212, 0.00443482, -0.00828787
424169233.020737, -0.01643372, 0.00796509, 0.99537659, 0.01652705, -0.00258833, -0.02664013, -170.24867249, 138.08106995, 191.54527283, -0.01547947, 0.01087330, 0.99982107, -0.00246487, -0.00141286, -0.00517690, 0.00000000, 0.00000000, 0.00000000, 0.89113821, 0.45363336, 0.00443132, -0.00835656
424169233.036857, -0.01707458, 0.00503540, 0.99636841, 0.00823370, -0.00604538, -0.02678448, -170.93309021, 139.10769653, 193.54226685, -0.01549455, 0.01090067, 0.99982053, -0.00093916, -0.00293559, -0.00444394, 0.00000000, 0.00000000, 0.00000000, 0.89109820, 0.45371166, 0.00443110, -0.00837257
424169233.052793, -0.01707458, 0.00503540, 0.99636841, 0.01644502, -0.00484429, -0.01387613, -169.73536682, 137.22555542, 193.37585449, -0.01549200, 0.01078944, 0.99982178, -0.00158259, -0.00575404, -0.00345337, 0.00000000, 0.00000000, 0.00000000, 0.89106658, 0.45377443, 0.00445461, -0.00832273
424169233.068520, -0.01507568, 0.01135254, 0.99415588, 0.01188356, 0.00212787, -0.02311837, -169.73536682, 137.22555542, 193.37585449, -0.01546236, 0.01083037, 0.99982178, 0.00038668, 0.00052217, -0.00566591, 0.00000000, 0.00000000, 0.00000000, 0.89106114, 0.45378513, 0.00443202, -0.00833430
424169233.084478, -0.01329041, 0.00888062, 0.99087524, 0.01646233, -0.00607574, -0.02437139, -169.56427002, 139.10769653, 192.54377747, -0.01541785, 0.01090282, 0.99982172, 0.00188330, -0.00106090, -0.00369743, 0.00000000, 0.00000000, 0.00000000, 0.89104910, 0.45380872, 0.00439552, -0.00835659
424169233.100381, -0.01646423, 0.00917053, 0.99737549, 0.01060764, -0.00249219, -0.01622531, -170.41978455, 137.90997314, 190.71319580, -0.01540283, 0.01085776, 0.99982244, -0.00000855, -0.00486106, -0.00645999, 0.00000000, 0.00000000, 0.00000000, 0.89105390, 0.45379968, 0.00439914, -0.00833307
424169233.116966, -0.01550293, 0.00869751, 0.99063110, 0.01065051, -0.00136753, -0.02318948, -170.24867249, 137.73886108, 190.87960815, -0.01548517, 0.01087725, 0.99982095, -0.00097907, -0.00170671, -0.00244544, 0.00000000, 0.00000000, 0.00000000, 0.89105437, 0.45379795, 0.00443142, -0.00836043
424169233.132961, -0.01550293, 0.00869751, 0.99063110, 0.01757154, -0.01076530, -0.02676583, -168.53764343, 137.73886108, 191.54527283, -0.01551304, 0.01079910, 0.99982136, 0.00001011, -0.00210159, -0.00919024, 0.00000000, 0.00000000, 0.00000000, 0.89104521, 0.45381617, 0.00446141, -0.00833202
424169233.147497, -0.01449585, 0.00886536, 0.99937439, 0.00716523, 0.00217474, -0.01967517, -168.87985229, 136.37004089, 190.21394348, -0.01553214, 0.01080941, 0.99982095, 0.00103629, -0.00194406, -0.00044655, 0.00000000, 0.00000000, 0.00000000, 0.89105108, 0.45380440, 0.00446769, -0.00834089
424169233.163918, -0.01524353, 0.00917053, 0.99389648, 0.02114869, -0.00606508, -0.01850311, -168.36653137, 136.88334656, 189.71469116, -0.01554684, 0.01083310, 0.99982047, -0.00044437, -0.00138791, -0.01018117, 0.00000000, 0.00000000, 0.00000000, 0.89102644, 0.45385252, 0.00446841, -0.00835502
424169233.179069, -0.01470947, 0.00791931, 0.99713135, 0.01426336, 0.00807257, -0.00320831, -168.36653137, 136.88334656, 189.71469116, -0.01555500, 0.01097649, 0.99981874, -0.00168743, -0.00008172, -0.00116154, 0.00000000, 0.00000000, 0.00000000, 0.89102946, 0.45384566, 0.00443957, -0.00842074
424169233.194935, -0.01698303, 0.00991821, 0.99414062, 0.01301327, 0.00100401, -0.01497815, -168.19543457, 136.02783203, 190.21394348, -0.01565892, 0.01104362, 0.99981642, 0.00094945, -0.00312431, -0.00268505, 0.00000000, 0.00000000, 0.00000000, 0.89105974, 0.45378490, 0.00447121, -0.00847393
424169233.210582, -0.01698303, 0.00991821, 0.99414062, 0.01998676, -0.00488477, -0.01733132, -168.53764343, 136.71224976, 190.54678345, -0.01569369, 0.01107708, 0.99981546, -0.00128934, -0.00115887, -0.00567486, 0.00000000, 0.00000000, 0.00000000, 0.89106766, 0.45376884, 0.00447927, -0.00849665
424169233.227592, -0.01396179, 0.00643921, 0.99360657, 0.01289716, -0.00719533, -0.01977184, -168.70874023, 137.22555542, 192.04452515, -0.01566192, 0.01114780, 0.99981523, 0.00170013, -0.00470859, -0.00620863, 0.00000000, 0.00000000, 0.00000000, 0.89106706, 0.45376986, 0.00444906, -0.00852096
424169233.242270, -0.01721191, 0.01039124, 1.00315857, 0.00956208, 0.00688827, -0.01026036, -169.56427002, 139.10769653, 190.87960815, -0.01563281, 0.01118641, 0.99981523, -0.00176221, -0.00415211, -0.00866532, 0.00000000, 0.00000000, 0.00000000, 0.89104263, 0.45381785, 0.00442687, -0.00853180
424169233.258010, -0.01602173, 0.00994873, 0.98341370, 0.01175040, -0.00484030, -0.01741654, -169.39315796, 137.90997314, 192.04452515, -0.01563762, 0.01120881, 0.99981487, 0.00285075, -0.00211458, -0.00170699, 0.00000000, 0.00000000, 0.00000000, 0.89103950, 0.45382381, 0.00442386, -0.00854290
424169233.274068, -0.01658630, 0.00598145, 1.00509644, 0.01295788, -0.00370046, -0.02087679, -169.39315796, 137.90997314, 192.04452515, -0.01568605, 0.01126049, 0.99981356, -0.00033568, -0.00131176, -0.01639986, 0.00000000, 0.00000000, 0.00000000, 0.89103066, 0.45384044, 0.00443355, -0.00857700
424169233.290446, -0.01676941, 0.01020813, 0.98616028, 0.00367037, 0.00333215, -0.02434768, -170.07757568, 137.22555542, 191.71170044, -0.01564381, 0.01123111, 0.99981457, -0.00094249, -0.00524966, 0.00528189, 0.00000000, 0.00000000, 0.00000000, 0.89102320, 0.45385563, 0.00442126, -0.00855440
424169233.305476, -0.01676941, 0.01020813, 0.98616028, 0.00944437, -0.00370978, -0.02556901, -169.90646362, 139.44990540, 192.21093750, -0.01583099, 0.01109852, 0.99981308, -0.00093842, -0.00089039, -0.01365281, 0.00000000, 0.00000000, 0.00000000, 0.89103274, 0.45383608, 0.00453494, -0.00853771
424169233.321117, -0.01730347, 0.00479126, 0.99810791, 0.01645940, -0.00727176, -0.02904710, -168.70874023, 139.96322632, 191.37886047, -0.01588753, 0.01111316, 0.99981201, -0.00402519, -0.00064563, -0.00138368, 0.00000000, 0.00000000, 0.00000000, 0.89099580, 0.45390802, 0.00455612, -0.00855743
424169233.337125, -0.01408386, 0.00302124, 0.99282837, 0.00940122, -0.00483444, -0.01860511, -170.24867249, 139.44990540, 190.21394348, -0.01580822, 0.01108091, 0.99981362, 0.00231945, -0.00412290, -0.01195964, 0.00000000, 0.00000000, 0.00000000, 0.89097728, 0.45394527, 0.00452774, -0.00852525
424169233.352779, -0.01445007, 0.00669861, 0.99211121, 0.01064812, 0.00103810, -0.01151071, -169.22206116, 138.76548767, 191.54527283, -0.01573941, 0.01102872, 0.99981529, 0.00165555, -0.00800748, -0.00698693, 0.00000000, 0.00000000, 0.00000000, 0.89094391, 0.45401167, 0.00450830, -0.00848671
424169233.370089, -0.01556396, 0.01136780, 0.99392700, 0.00830161, 0.00223972, -0.00802357, -168.53764343, 139.10769653, 190.21394348, -0.01568392, 0.01091894, 0.99981737, 0.00123384, -0.00422033, -0.00770617, 0.00000000, 0.00000000, 0.00000000, 0.89094300, 0.45401461, 0.00450847, -0.00842521
424169233.386224, -0.01556396, 0.01136780, 0.99392700, 0.00606455, 0.01045158, -0.00325412, -169.90646362, 136.37004089, 191.54527283, -0.01573226, 0.01097013, 0.99981606, 0.00016830, 0.00039766, -0.00588906, 0.00000000, 0.00000000, 0.00000000, 0.89096540, 0.45396991, 0.00451881, -0.00845877
424169233.400206, -0.01766968, 0.00799561, 0.99539185, 0.01890578, -0.00024474, -0.02308455, -169.90646362, 136.37004089, 191.54527283, -0.01585903, 0.01096332, 0.99981415, 0.00108852, -0.00154865, -0.00793181, 0.00000000, 0.00000000, 0.00000000, 0.89099771, 0.45390543, 0.00457745, -0.00848419
424169233.417162, -0.01728821, 0.00381470, 0.99661255, 0.01059272, -0.00366637, -0.01740908, -168.36653137, 137.56776428, 190.71319580, -0.01609152, 0.01085051, 0.99981165, -0.00214274, -0.00773772, -0.00396204, 0.00000000, 0.00000000, 0.00000000, 0.89102688, 0.45384680, 0.00470720, -0.00848639
424169233.432757, -0.01477051, 0.01013184, 0.99565125, 0.01642052, -0.00840307, -0.02324700, -168.87985229, 137.73886108, 190.87960815, -0.01614233, 0.01073394, 0.99981207, -0.00097803, -0.00519500, -0.01018806, 0.00000000, 0.00000000, 0.00000000, 0.89103506, 0.45383099, 0.00475644, -0.00844590
424169233.451673, -0.01483154, 0.01087952, 0.98989868, 0.01992870, -0.01078500, -0.02790540, -168.70874023, 138.59439087, 190.38035583, -0.01609670, 0.01082282, 0.99981189, 0.00132620, -0.00069099, -0.00416062, 0.00000000, 0.00000000, 0.00000000, 0.89101133, 0.45387745, 0.00471550, -0.00847539
424169233.463498, -0.01483154, 0.01087952, 0.98989868, 0.00832451, 0.00339953, -0.00916793, -167.51101685, 137.39665222, 189.54827881, -0.01588067, 0.01095974, 0.99981385, 0.00104913, -0.00008023, -0.00991515, 0.00000000, 0.00000000, 0.00000000, 0.89096401, 0.45397142, 0.00458728, -0.00848785
424169233.479201, -0.01612854, 0.00669861, 1.00285339, 0.01543302, 0.00687788, -0.00670770, -169.73536682, 138.93659973, 191.71170044, -0.01583615, 0.01096832, 0.99981445, 0.00321713, 0.00035370, -0.00842040, 0.00000000, 0.00000000, 0.00000000, 0.89096429, 0.45397120, 0.00456549, -0.00848156
424169233.495223, -0.01380920, 0.00817871, 0.98162842, 0.01658111, 0.00331936, -0.01490225, -169.73536682, 138.93659973, 191.71170044, -0.01593191, 0.01092198, 0.99981344, 0.00050528, -0.00419285, -0.00768696, 0.00000000, 0.00000000, 0.00000000, 0.89099223, 0.45391580, 0.00461921, -0.00848236
424169233.510911, -0.01632690, 0.00524902, 1.00158691, 0.01300794, -0.00138751, -0.02432904, -167.51101685, 138.08106995, 191.54527283, -0.01599589, 0.01089988, 0.99981266, -0.00086507, -0.00465903, -0.00194887, 0.00000000, 0.00000000, 0.00000000, 0.89098833, 0.45392304, 0.00465266, -0.00848708
424169233.527690, -0.01588440, 0.01409912, 0.98667908, 0.01769324, -0.00017417, -0.01262099, -170.24867249, 139.79211426, 191.54527283, -0.01606478, 0.01088428, 0.99981171, -0.00026213, -0.00563526, 0.00177520, 0.00000000, 0.00000000, 0.00000000, 0.89099437, 0.45391066, 0.00468701, -0.00849570
424169233.542736, -0.01588440, 0.01409912, 0.98667908, 0.01288917, -0.00718121, -0.01744397, -170.24867249, 138.42327881, 192.87660217, -0.01618806, 0.01094715, 0.99980903, 0.00030366, 0.00315197, -0.01312996, 0.00000000, 0.00000000, 0.00000000, 0.89099334, 0.45391121, 0.00472766, -0.00855171
424169233.558932, -0.01866150, 0.00872803, 0.99789429, 0.01053733, -0.00837111, -0.02330772, -170.24867249, 138.08106995, 191.54527283, -0.01615026, 0.01099165, 0.99980915, 0.00022008, -0.00209577, 0.00331889, 0.00000000, 0.00000000, 0.00000000, 0.89097558, 0.45394613, 0.00470038, -0.00856313
424169233.574120, -0.01477051, 0.00941467, 0.99238586, 0.01059805, -0.00487678, -0.02441240, -171.10420227, 137.90997314, 191.37886047, -0.01613679, 0.01090864, 0.99981028, 0.00040498, -0.00244001, -0.01267344, 0.00000000, 0.00000000, 0.00000000, 0.89095361, 0.45398987, 0.00471281, -0.00852332
424169233.591090, -0.01367188, 0.00543213, 0.99934387, 0.01656087, -0.00024634, -0.02543692, -170.07757568, 137.22555542, 192.37736511, -0.01598040, 0.01083598, 0.99981362, 0.00215594, -0.00810466, 0.00226161, 0.00000000, 0.00000000, 0.00000000, 0.89091101, 0.45407528, 0.00465882, -0.00845589
424169233.605944, -0.01445007, 0.00741577, 0.99584961, 0.00491193, 0.01041509, -0.01024997, -170.07757568, 137.22555542, 192.37736511, -0.01595324, 0.01085271, 0.99981385, 0.00228136, -0.00542058, -0.00046997, 0.00000000, 0.00000000, 0.00000000, 0.89088928, 0.45411806, 0.00464251, -0.00845739
424169233.621233, -0.01445007, 0.00741577, 0.99584961, 0.01652465, -0.00018216, -0.01496111, -169.56427002, 139.44990540, 191.87811279, -0.01607873, 0.01072451, 0.99981320, 0.00162866, -0.00330874, -0.00396360, 0.00000000, 0.00000000, 0.00000000, 0.89091383, 0.45406954, 0.00472799, -0.00842853
424169233.638302, -0.01757812, 0.01266479, 0.98619080, 0.01997451, -0.00846486, -0.03019386, -168.87985229, 138.42327881, 191.54527283, -0.01613939, 0.01083280, 0.99981105, 0.00088060, 0.00120639, 0.00932895, 0.00000000, 0.00000000, 0.00000000, 0.89092269, 0.45405099, 0.00473060, -0.00849045
424169233.653510, -0.01815796, 0.00921631, 1.00039673, 0.00483657, 0.00574604, -0.01032880, -168.19543457, 138.08106995, 190.54678345, -0.01608353, 0.01105883, 0.99980950, 0.00164872, 0.00372693, -0.01114677, 0.00000000, 0.00000000, 0.00000000, 0.89090190, 0.45409091, 0.00465401, -0.00857868
424169233.669096, -0.01573181, 0.00701904, 0.98138428, 0.01646100, -0.00487279, -0.01853214, -167.68211365, 135.51451111, 189.71469116, -0.01609719, 0.01093432, 0.99981064, 0.00334084, -0.00234363, 0.00279861, 0.00000000, 0.00000000, 0.00000000, 0.89089295, 0.45410911, 0.00468819, -0.00852640
424169233.685518, -0.01727295, 0.00427246, 1.00709534, 0.01418053, -0.00138671, -0.02315299, -166.82659912, 135.68562317, 190.21394348, -0.01611065, 0.01093477, 0.99981040, 0.00037883, -0.00391572, -0.01842614, 0.00000000, 0.00000000, 0.00000000, 0.89089214, 0.45411057, 0.00469407, -0.00852966
424169233.701096, -0.01727295, 0.00427246, 1.00709534, 0.01064146, -0.00015020, -0.01502183, -168.36653137, 135.51451111, 190.04753113, -0.01604077, 0.01087507, 0.99981219, -0.00123218, -0.00660260, 0.00728314, 0.00000000, 0.00000000, 0.00000000, 0.89086083, 0.45417295, 0.00467590, -0.00848752
424169233.716936, -0.01818848, 0.00854492, 0.98240662, 0.00484056, 0.00573885, -0.01149287, -168.36653137, 135.51451111, 190.04753113, -0.01609752, 0.01081487, 0.99981195, -0.00209095, -0.00226995, -0.01740532, 0.00000000, 0.00000000, 0.00000000, 0.89088001, 0.45413520, 0.00471522, -0.00847340
424169233.732707, -0.01182556, 0.01075745, 1.00761414, 0.01195173, 0.01041269, -0.00435720, -168.53764343, 136.37004089, 190.21394348, -0.01606308, 0.01081981, 0.99981242, 0.00388657, 0.00221119, -0.00817425, 0.00000000, 0.00000000, 0.00000000, 0.89086738, 0.45416024, 0.00469851, -0.00846791
424169233.747821, -0.01663208, 0.00485229, 0.97937012, 0.01653930, 0.00099203, -0.01377786, -170.41978455, 137.90997314, 190.38035583, -0.01604015, 0.01088596, 0.99981207, 0.00371105, -0.00130344, -0.00718208, 0.00000000, 0.00000000, 0.00000000, 0.89088564, 0.45412424, 0.00467362, -0.00849198
424169233.763852, -0.01747131, 0.00205994, 1.00631714, 0.01886983, -0.00018030, -0.01260874, -169.90646362, 137.39665222, 190.87960815, -0.01615374, 0.01087768, 0.99981034, -0.00047834, -0.00602538, -0.02044023, 0.00000000, 0.00000000, 0.00000000, 0.89089349, 0.45410787, 0.00472626, -0.00851400
424169233.779509, -0.01747131, 0.00205994, 1.00631714, 0.02575516, -0.01431902, -0.02790380, -170.93309021, 138.42327881, 191.87811279, -0.01613474, 0.01078700, 0.99981165, -0.00133657, -0.00872706, 0.00650550, 0.00000000, 0.00000000, 0.00000000, 0.89088724, 0.45412086, 0.00473826, -0.00846936
424169233.795393, -0.02458191, 0.00915527, 0.98168945, 0.00820946, -0.00600250, -0.01980087, -170.24867249, 139.79211426, 191.87811279, -0.01621950, 0.01095309, 0.99980849, -0.00836241, -0.00179781, -0.01811901, 0.00000000, 0.00000000, 0.00000000, 0.89086719, 0.45415844, 0.00473795, -0.00856280
424169233.811394, -0.01510620, 0.01446533, 1.00866699, 0.01056156, -0.00841399, -0.03029133, -169.22206116, 137.73886108, 191.87811279, -0.01610562, 0.01105792, 0.99980915, 0.00054166, 0.00223248, 0.00685894, 0.00000000, 0.00000000, 0.00000000, 0.89083027, 0.45423122, 0.00466271, -0.00858402
424169233.827290, -0.00970459, 0.01150513, 0.98739624, 0.00369753, 0.00808695, -0.01030137, -169.22206116, 137.73886108, 191.87811279, -0.01587949, 0.01113092, 0.99981195, 0.00806699, 0.00159491, -0.02042658, 0.00000000, 0.00000000, 0.00000000, 0.89079277, 0.45430630, 0.00454467, -0.00856555
424169233.842583, -0.01066589, 0.00318909, 0.99580383, 0.00845660, 0.01157064, -0.00902998, -170.76199341, 138.93659973, 191.04602051, -0.01578956, 0.01113069, 0.99981338, 0.00608497, 0.00037444, -0.01241714, 0.00000000, 0.00000000, 0.00000000, 0.89077899, 0.45433410, 0.00450440, -0.00854516
424169233.859845, -0.01066589, 0.00318909, 0.99580383, 0.01537736, 0.00217314, -0.01260607, -170.76199341, 138.59439087, 193.04302979, -0.01579342, 0.01090157, 0.99981582, 0.00512752, -0.00771248, -0.00401201, 0.00000000, 0.00000000, 0.00000000, 0.89079963, 0.45429499, 0.00455854, -0.00844377
424169233.874306, -0.01663208, 0.00578308, 0.99011230, 0.01084785, 0.01389265, -0.00896606, -170.93309021, 137.39665222, 190.21394348, -0.01606763, 0.01079627, 0.99981260, -0.00056445, -0.00501319, -0.00970031, 0.00000000, 0.00000000, 0.00000000, 0.89082410, 0.45424524, 0.00470508, -0.00845891
424169233.891064, -0.01889038, 0.00779724, 0.99090576, 0.02463238, -0.01200660, -0.03253238, -170.41978455, 136.88334656, 192.37736511, -0.01639173, 0.01069679, 0.99980843, -0.00671008, -0.00778236, 0.00782097, 0.00000000, 0.00000000, 0.00000000, 0.89085722, 0.45417797, 0.00487269, -0.00848785
424169233.906341, -0.01600647, 0.01065063, 0.99391174, 0.01054266, -0.00958152, -0.03031103, -168.87985229, 137.73886108, 191.54527283, -0.01641936, 0.01094464, 0.99980527, -0.00117403, 0.00269672, -0.01311096, 0.00000000, 0.00000000, 0.00000000, 0.89084515, 0.45419991, 0.00482849, -0.00860466
424169233.921476, -0.01268005, 0.01350403, 0.99266052, 0.01644209, -0.00603978, -0.01855185, -168.87985229, 137.73886108, 191.54527283, -0.01621376, 0.01107288, 0.99980724, 0.00020729, -0.00042224, -0.00589549, 0.00000000, 0.00000000, 0.00000000, 0.89076377, 0.45436056, 0.00470623, -0.00861594
424169233.937702, -0.01268005, 0.01350403, 0.99266052, 0.02120143, -0.00255663, -0.01727992, -167.16880798, 137.39665222, 190.54678345, -0.01601114, 0.01121967, 0.99980885, 0.00333108, 0.00228436, -0.00714834, 0.00000000, 0.00000000, 0.00000000, 0.89072343, 0.45444054, 0.00458185, -0.00863569
424169233.953539, -0.01591492, 0.00796509, 0.99588013, 0.03324531, 0.01609908, -0.00985955, -168.36653137, 137.56776428, 191.04602051, -0.01588062, 0.01123295, 0.99981081, -0.00003430, -0.00326786, -0.00393067, 0.00000000, 0.00000000, 0.00000000, 0.89069980, 0.45448792, 0.00452024, -0.00861218
424169233.969100, -0.01821899, 0.00094604, 0.98286438, 0.04526894, 0.03118881, -0.01297386, -167.85322571, 136.37004089, 191.54527283, -0.01599260, 0.01146804, 0.99980634, 0.00454851, -0.00727187, -0.00871747, 0.00000000, 0.00000000, 0.00000000, 0.89072063, 0.45444465, 0.00451711, -0.00874213
424169233.985255, -0.01873779, 0.00122070, 0.97760010, 0.06513160, 0.02292396, -0.01057648, -167.51101685, 135.34341431, 191.87811279, -0.01649519, 0.01170137, 0.99979550, 0.00454756, -0.00748995, -0.01021723, 0.00000000, 0.00000000, 0.00000000, 0.89074429, 0.45439227, 0.00468847, -0.00896003
424169234.000553, -0.01731873, 0.01431274, 1.00292969, 0.04879204, 0.02998080, -0.01644875, -169.73536682, 137.22555542, 191.04602051, -0.01696781, 0.01228347, 0.99978060, 0.00178531, -0.00294509, 0.01332672, 0.00000000, 0.00000000, 0.00000000, 0.89076690, 0.45433977, 0.00476727, -0.00932645
424169234.018330, -0.02075195, 0.01512146, 1.00195312, 0.02497885, 0.01019272, -0.02866653, -169.22206116, 137.39665222, 190.87960815, -0.01748715, 0.01303645, 0.99976212, 0.00016842, 0.00127630, 0.00316759, 0.00000000, 0.00000000, 0.00000000, 0.89077146, 0.45432064, 0.00482774, -0.00977980
424169234.032515, -0.02075195, 0.01512146, 1.00195312, -0.01701520, 0.03018693, -0.04157354, -169.22206116, 137.39665222, 190.87960815, -0.01787467, 0.01352908, 0.99974871, -0.00287728, 0.00159238, 0.00220443, 0.00000000, 0.00000000, 0.00000000, 0.89074976, 0.45435581, 0.00488804, -0.01008751
424169234.048135, -0.01734924, 0.00625610, 0.99687195, -0.02192394, 0.02456873, -0.01029365, -170.07757568, 138.59439087, 191.71170044, -0.01847101, 0.01326891, 0.99974132, -0.00870489, -0.00344225, 0.01795885, 0.00000000, 0.00000000, 0.00000000, 0.89069613, 0.45445690, 0.00521163, -0.01010773
424169234.064698, -0.01966858, 0.00332642, 1.01034546, -0.02213779, 0.01414192, 0.00233266, -169.90646362, 139.10769653, 191.21244812, -0.01882787, 0.01262399, 0.99974304, 0.00604100, -0.00494882, -0.01486450, 0.00000000, 0.00000000, 0.00000000, 0.89067663, 0.45449604, 0.00551670, -0.00990181
424169234.079688, -0.01107788, -0.06918335, 0.99497986, -0.01755742, 0.02034575, 0.06649727, -169.22206116, 138.42327881, 190.54678345, -0.01909054, 0.01181662, 0.99974793, 0.00168026, -0.01456320, -0.01543396, 0.00000000, 0.00000000, 0.00000000, 0.89073568, 0.45438301, 0.00581841, -0.00960116
424169234.096331, -0.04428101, 0.15083313, 0.95875549, 0.08173774, -0.03535613, 0.01772041, -170.76199341, 139.62101746, 192.37736511, -0.01927729, 0.01020504, 0.99976212, 0.00819941, -0.07938839, -0.00478223, 0.00000000, 0.00000000, 0.00000000, 0.89093433, 0.45400117, 0.00627160, -0.00892303
424169234.111259, -0.04428101, 0.15083313, 0.95875549, -0.02001845, -0.00466879, -0.01774544, -168.87985229, 138.76548767, 191.54527283, -0.01902905, 0.01072675, 0.99976140, -0.02525196, 0.14010638, -0.04100589, 0.00000000, 0.00000000, 0.00000000, 0.89114343, 0.45359021, 0.00604675, -0.00909632
424169234.128430, -0.00965881, 0.00741577, 0.96762085, 0.03865898, -0.01912203, -0.03832422, -168.87985229, 138.76548767, 191.54527283, -0.01890517, 0.01056010, 0.99976552, 0.02177382, 0.05122274, 0.07810009, 0.00000000, 0.00000000, 0.00000000, 0.89114122, 0.45359682, 0.00602928, -0.00899399
424169234.142930, -0.02151489, 0.00471497, 0.97889709, 0.04701039, -0.00616229, -0.01125132, -170.24867249, 138.42327881, 191.21244812, -0.01859766, 0.01076773, 0.99976909, 0.00295740, -0.00596121, -0.01540932, 0.00000000, 0.00000000, 0.00000000, 0.89108467, 0.45370987, 0.00584401, -0.00901749
424169234.158591, -0.01454163, 0.01013184, 0.99214172, 0.04947301, 0.00083543, -0.00994504, -169.39315796, 138.59439087, 190.71319580, -0.01848241, 0.01131911, 0.99976510, -0.00081996, -0.00576492, -0.00139780, 0.00000000, 0.00000000, 0.00000000, 0.89106559, 0.45374517, 0.00566719, -0.00923727
424169234.175022, -0.02326965, 0.01692200, 0.99574280, 0.03662459, 0.00674206, -0.00998020, -168.87985229, 137.73886108, 190.54678345, -0.01842142, 0.01193932, 0.99975902, 0.00387979, -0.00180748, -0.00761730, 0.00000000, 0.00000000, 0.00000000, 0.89109122, 0.45369146, 0.00549986, -0.00949947
424169234.190928, -0.02326965, 0.01692200, 0.99574280, 0.05648938, -0.00392843, -0.01926211, -169.39315796, 137.56776428, 191.04602051, -0.01846529, 0.01246865, 0.99975175, -0.00480436, 0.00445334, -0.00400895, 0.00000000, 0.00000000, 0.00000000, 0.89108068, 0.45370816, 0.00539914, -0.00974543
424169234.206020, -0.01268005, 0.02325439, 1.00247192, 0.05075053, -0.00415373, -0.06122554, -168.19543457, 137.05444336, 190.54678345, -0.01848805, 0.01318362, 0.99974215, -0.00154674, 0.00862119, -0.02070774, 0.00000000, 0.00000000, 0.00000000, 0.89108372, 0.45369690, 0.00524719, -0.01006914
424169234.221598, -0.01338196, 0.01304626, 0.99565125, 0.03798067, -0.00078909, -0.09505514, -168.19543457, 137.05444336, 190.54678345, -0.01839991, 0.01405846, 0.99973184, 0.00816126, -0.00034081, -0.00757488, 0.00000000, 0.00000000, 0.00000000, 0.89099253, 0.45387029, 0.00500741, -0.01043998
424169234.237818, -0.01332092, 0.00199890, 0.99705505, 0.02491014, -0.01370196, -0.11868537, -168.19543457, 136.71224976, 192.21093750, -0.01835920, 0.01464310, 0.99972421, 0.00053694, 0.02777633, 0.01066701, 0.00000000, 0.00000000, 0.00000000, 0.89072831, 0.45438441, 0.00485040, -0.01069405
424169234.254114, -0.02993774, -0.01167297, 0.96134949, 0.01018553, 0.03219682, -0.07035326, -166.99769592, 135.85671997, 191.71170044, -0.01816719, 0.01462546, 0.99972796, 0.00484627, -0.01262656, -0.00267293, 0.00000000, 0.00000000, 0.00000000, 0.89037768, 0.45507315, 0.00476065, -0.01064624
424169234.269367, -0.02993774, -0.01167297, 0.96134949, 0.00151427, 0.02220730, 0.00620543, -167.33990479, 136.54113770, 190.38035583, -0.01832104, 0.01470990, 0.99972397, -0.01161671, -0.02638287, -0.03837445, 0.00000000, 0.00000000, 0.00000000, 0.89008934, 0.45563465, 0.00480317, -0.01072189
424169234.285898, -0.01130676, 0.02713013, 1.00523376, -0.02772750, 0.04127074, 0.04346279, -166.99769592, 135.51451111, 190.71319580, -0.01895070, 0.01442013, 0.99971640, -0.00061107, -0.01242123, 0.03508887, 0.00000000, 0.00000000, 0.00000000, 0.89011967, 0.45557128, 0.00515022, -0.01073604
424169234.301189, 0.19569397, 0.07452393, 0.99716187, -0.03599795, 0.00263546, 0.20800247, -167.68211365, 136.88334656, 191.04602051, -0.01947341, 0.01421452, 0.99970931, 0.07866225, 0.05298519, 0.00268631, 0.00000000, 0.00000000, 0.00000000, 0.89026141, 0.45529033, 0.00543314, -0.01076191
424169234.317599, 0.21615601, -0.02148438, 0.97753906, 0.00882145, -0.02933206, 0.36506053, -167.68211365, 136.88334656, 191.04602051, -0.01963042, 0.01366059, 0.99971396, 0.26522064, 0.00768645, -0.00900658, 0.00000000, 0.00000000, 0.00000000, 0.89086478, 0.45411115, 0.00564312, -0.01054358
424169234.332651, -0.19740295, 0.04962158, 0.98304749, 0.00531594, -0.02575410, 0.37439464, -168.53764343, 137.73886108, 190.87960815, -0.01916536, 0.01356352, 0.99972433, 0.23532136, -0.03504789, -0.02218526, 0.00000000, 0.00000000, 0.00000000, 0.89202772, 0.45182819, 0.00548458, -0.01038067
424169234.348149, -0.19740295, 0.04962158, 0.98304749, -0.00245783, 0.00019814, 0.03023806, -169.73536682, 139.27880859, 191.37886047, -0.01868660, 0.01354029, 0.99973369, -0.17871635, 0.03608129, -0.01668621, 0.00000000, 0.00000000, 0.00000000, 0.89357710, 0.44876142, 0.00531149, -0.01024393
424169234.364448, 0.02136230, -0.02009583, 1.02314758, -0.03240215, -0.00350552, 0.16138224, -171.10420227, 139.27880859, 192.04452515, -0.01865613, 0.01322303, 0.99973851, 0.04001844, -0.03331886, 0.02340907, 0.00000000, 0.00000000, 0.00000000, 0.89383470, 0.44825081, 0.00537483, -0.01009224
424169234.379844, 0.00030518, 0.06295776, 0.97351074, 0.12334750, -0.00631835, 0.03144208, -170.41978455, 137.22555542, 192.04452515, -0.01874148, 0.01257650, 0.99974525, 0.04924380, 0.08198222, -0.01242532, 0.00000000, 0.00000000, 0.00000000, 0.89441259, 0.44710039, 0.00557054, -0.00981520
424169234.395981, -0.04624939, -0.01451111, 1.03433228, 0.16882071, 0.09086892, -0.06888213, -169.73536682, 138.93659973, 191.04602051, -0.01838352, 0.01352195, 0.99973959, -0.01254605, -0.05372886, 0.01031597, 0.00000000, 0.00000000, 0.00000000, 0.89472303, 0.44647562, 0.00520615, -0.01015442
424169234.411684, 0.01103210, 0.04743958, 1.13688660, 0.20490441, 0.21688651, -0.04428757, -169.05094910, 138.25218201, 190.71319580, -0.01967862, 0.01576716, 0.99968201, -0.02657077, -0.03027827, 0.03465025, 0.00000000, 0.00000000, 0.00000000, 0.89461177, 0.44666630, 0.00528187, -0.01144945
424169234.428450, 0.01103210, 0.04743958, 1.13688660, 0.01487162, 0.25290576, -0.05032496, -169.05094910, 138.25218201, 190.71319580, -0.02195016, 0.01879131, 0.99958247, 0.03298227, 0.02864826, 0.13730414, 0.00000000, 0.00000000, 0.00000000, 0.89443225, 0.44696999, 0.00561806, -0.01331209
424169234.443101, 0.01075745, -0.02131653, 1.20974731, 0.03598330, -0.43319990, -0.18260363, -168.36653137, 138.93659973, 191.37886047, -0.02723847, 0.02042311, 0.99942029, 0.03799592, -0.04173964, 0.21032700, 0.00000000, 0.00000000, 0.00000000, 0.89430733, 0.44712924, 0.00761611, -0.01522624
424169234.459420, -0.02809143, 0.13392639, 1.19873047, -0.22514710, 0.22655538, -0.18362442, -169.39315796, 135.51451111, 192.37736511, -0.02166851, 0.01944337, 0.99957615, -0.08933918, -0.03430543, -0.02255586, 0.00000000, 0.00000000, 0.00000000, 0.89396078, 0.44790868, 0.00533210, -0.01354643
424169234.474926, 0.09510803, -0.07112122, 1.08396912, -0.04878671, 0.40419728, 0.00973066, -169.39315796, 137.56776428, 190.38035583, -0.02241557, 0.01684155, 0.99960685, -0.03161581, 0.01564441, 0.00092718, 0.00000000, 0.00000000, 0.00000000, 0.89329067, 0.44926075, 0.00622991, -0.01255989
424169234.490825, -0.05487061, -0.03094482, 1.02650452, 0.01685195, 0.04967142, 0.12088434, -168.70874023, 137.22555542, 191.71170044, -0.02925757, 0.01469278, 0.99946392, 0.12436561, -0.08581400, 0.08450520, 0.00000000, 0.00000000, 0.00000000, 0.89308482, 0.44959032, 0.00976450, -0.01314143
424169234.506316, -0.05487061, -0.03094482, 1.02650452, -0.17648023, -0.03901531, 0.14299151, -168.87985229, 136.37004089, 191.87811279, -0.03192698, 0.01501896, 0.99937737, -0.02294363, -0.04596379, 0.02712716, 0.00000000, 0.00000000, 0.00000000, 0.89344836, 0.44881923, 0.01089555, -0.01387838
424169234.521765, -0.03988647, 0.02529907, 1.07656860, -0.04325400, 0.11292788, 0.10385529, -168.87985229, 136.37004089, 191.87811279, -0.03146961, 0.01299563, 0.99942023, -0.00841686, 0.01230344, 0.07714839, 0.00000000, 0.00000000, 0.00000000, 0.89402954, 0.44768437, 0.01116165, -0.01285719
424169234.538229, -0.05694580, 0.01295471, 1.13775635, 0.04040708, 0.31614758, 0.00686377, -167.85322571, 135.34341431, 189.88111877, -0.03227092, 0.01122913, 0.99941605, 0.00324870, 0.00634899, 0.11723737, 0.00000000, 0.00000000, 0.00000000, 0.89452010, 0.44670104, 0.01192894, -0.01223364
424169234.554040, -0.07455444, 0.03092957, 1.14375305, 0.01639948, 0.49458736, -0.03929041, -167.85322571, 136.37004089, 189.88111877, -0.03607899, 0.01160635, 0.99928153, -0.04242748, -0.00458731, 0.15277229, 0.00000000, 0.00000000, 0.00000000, 0.89468094, 0.44630347, 0.01355448, -0.01324784
424169234.569684, -0.07890320, 0.06930542, 1.11161804, -0.01955453, 0.45271342, -0.04734834, -166.48439026, 137.05444336, 190.21394348, -0.04314836, 0.01176842, 0.99899936, -0.03140608, 0.01916115, 0.14475369, 0.00000000, 0.00000000, 0.00000000, 0.89458186, 0.44634402, 0.01668184, -0.01490087
424169234.585876, -0.07890320, 0.06930542, 1.11161804, 0.00310098, 0.40851560, -0.00129430, -167.16880798, 137.39665222, 190.54678345, -0.05055026, 0.01161959, 0.99865395, -0.02835294, 0.05768583, 0.11296412, 0.00000000, 0.00000000, 0.00000000, 0.89441088, 0.44649317, 0.02002580, -0.01649262
424169234.601171, -0.04389954, 0.05833435, 1.03042603, 0.08562649, 0.22311138, 0.10354796, -167.85322571, 137.39665222, 188.88261414, -0.05751252, 0.01121279, 0.99828184, 0.01361299, 0.04712156, 0.03214421, 0.00000000, 0.00000000, 0.00000000, 0.89434195, 0.44642287, 0.02323507, -0.01786684
424169234.617789, 0.02346802, 0.06726074, 0.99986267, 0.23752814, 0.17013578, 0.16593464, -166.99769592, 137.90997314, 191.04602051, -0.06178924, 0.01205835, 0.99801636, 0.07074615, 0.03989782, -0.01141359, 0.00000000, 0.00000000, 0.00000000, 0.89458913, 0.44577850, 0.02497508, -0.01918482
424169234.632940, 0.02655029, -0.00523376, 0.93783569, 0.35151622, -0.05332075, 0.18434321, -166.99769592, 137.90997314, 191.04602051, -0.06257819, 0.01642732, 0.99790484, 0.10511969, 0.03926726, -0.02921590, 0.00000000, 0.00000000, 0.00000000, 0.89516157, 0.44456517, 0.02438283, -0.02128489
424169234.649161, 0.00329590, 0.10871887, 1.01704407, 0.26613635, -0.24324941, 0.16282274, -168.36653137, 138.59439087, 190.04753113, -0.06287718, 0.02166508, 0.99778610, 0.08385801, 0.01762630, -0.03134017, 0.00000000, 0.00000000, 0.00000000, 0.89579482, 0.44322082, 0.02338721, -0.02366417
424169234.665989, -0.13334656, 0.15505981, 1.19927979, 0.21104380, -0.32169282, 0.07481086, -166.82659912, 138.08106995, 190.87960815, -0.05827045, 0.02865077, 0.99788964, 0.06156635, 0.08006810, 0.01915445, 0.00000000, 0.00000000, 0.00000000, 0.89648205, 0.44188770, 0.01980990, -0.02574411
424169234.680230, -0.13334656, 0.15505981, 1.19927979, 0.06452893, -0.23152537, -0.00901187, -169.90646362, 136.71224976, 190.87960815, -0.05317498, 0.03236206, 0.99806070, -0.08017158, 0.12269776, 0.20121911, 0.00000000, 0.00000000, 0.00000000, 0.89693087, 0.44107296, 0.01672635, -0.02626576
424169234.695783, -0.11842346, 0.16799927, 1.38134766, -0.01376109, 0.38528005, 0.00163305, -169.90646362, 138.42327881, 190.54678345, -0.04898796, 0.03425552, 0.99821174, -0.15425912, 0.12939499, 0.21179494, 0.00000000, 0.00000000, 0.00000000, 0.89705610, 0.44090388, 0.01443368, -0.02618747
424169234.711847, -0.01550293, 0.11810303, 1.17233276, 0.20414435, 0.63681907, 0.10005390, -168.53764343, 137.73886108, 191.21244812, -0.05188185, 0.03364423, 0.99808633, -0.00961107, 0.13560626, 0.30551779, 0.00000000, 0.00000000, 0.00000000, 0.89706646, 0.44081168, 0.01587053, -0.02655102
424169234.727698, 0.00326538, 0.03427124, 1.03692627, 0.29316557, 0.69620916, 0.15667670, -168.53764343, 137.73886108, 191.21244812, -0.06034617, 0.03556385, 0.99754375, 0.06185679, 0.02066479, 0.13471943, 0.00000000, 0.00000000, 0.00000000, 0.89725630, 0.44011704, 0.01927053, -0.02927058
424169234.743952, -0.03237915, 0.07806396, 0.98255920, 0.30861110, 0.13615384, 0.20800886, -168.70874023, 138.25218201, 191.04602051, -0.07177957, 0.03996309, 0.99661958, 0.07504495, -0.00569185, 0.04030666, 0.00000000, 0.00000000, 0.00000000, 0.89760154, 0.43888640, 0.02348479, -0.03374404
424169234.759429, -0.03237915, 0.07806396, 0.98255920, 0.10157350, -0.21983836, 0.21736268, -169.05094910, 138.25218201, 189.71469116, -0.07593804, 0.04564940, 0.99606705, 0.04355889, 0.03241457, -0.01350783, 0.00000000, 0.00000000, 0.00000000, 0.89820494, 0.43733444, 0.02416946, -0.03717953
424169234.774915, -0.07823181, 0.17718506, 1.04580688, 0.01454858, -0.42573773, 0.25491645, -170.07757568, 136.88334656, 190.04753113, -0.07378352, 0.04879230, 0.99607998, 0.00049556, 0.09872968, 0.03547521, 0.00000000, 0.00000000, 0.00000000, 0.89897332, 0.43576021, 0.02257809, -0.03808209
424169234.791479, -0.06539917, 0.07116699, 0.99568176, 0.13829716, -0.49312476, 0.22598573, -168.36653137, 136.54113770, 190.38035583, -0.06806593, 0.04910459, 0.99647164, -0.01172227, 0.07491884, 0.01221059, 0.00000000, 0.00000000, 0.00000000, 0.89993176, 0.43400306, 0.02000687, -0.03693096
424169234.806533, -0.05419922, 0.07304382, 1.14695740, 0.04725992, -0.22761665, 0.23296028, -168.02432251, 136.19892883, 188.38336182, -0.05955517, 0.05162939, 0.99688894, -0.02197254, 0.00649134, 0.11414925, 0.00000000, 0.00000000, 0.00000000, 0.90083710, 0.43236211, 0.01568786, -0.03618582
424169234.822218, -0.06228638, 0.09750366, 1.19566345, 0.06114405, -0.09335072, 0.25047749, -168.02432251, 136.19892883, 188.38336182, -0.05482168, 0.05296372, 0.99709046, 0.00062247, 0.02008011, 0.14986691, 0.00000000, 0.00000000, 0.00000000, 0.90170003, 0.43067656, 0.01333064, -0.03573589
424169234.838183, -0.06228638, 0.09750366, 1.19566345, -0.03988430, -0.01352273, 0.23446177, -167.51101685, 137.05444336, 189.54827881, -0.05208987, 0.05393360, 0.99718493, -0.01019651, 0.04357006, 0.19847851, 0.00000000, 0.00000000, 0.00000000, 0.90257802, 0.42888855, 0.01195867, -0.03556007
424169234.853739, -0.14028931, 0.03846741, 1.14543152, -0.11517985, -0.09150116, 0.20444049, -167.51101685, 137.05444336, 189.88111877, -0.05152986, 0.05402990, 0.99720883, -0.06967070, 0.00613550, 0.19000125, 0.00000000, 0.00000000, 0.00000000, 0.90345320, 0.42705589, 0.01175692, -0.03545930
424169234.870853, -0.06462097, 0.04061890, 1.04661560, -0.12878115, -0.64845229, 0.16473888, -169.22206116, 137.39665222, 189.54827881, -0.05047695, 0.05233647, 0.99735296, -0.05100925, -0.00765874, 0.09996758, 0.00000000, 0.00000000, 0.00000000, 0.90425908, 0.42543155, 0.01170482, -0.03444570
424169234.885850, 0.00418091, 0.02520752, 1.16722107, -0.28371774, -1.05486000, 0.18426944, -169.22206116, 137.05444336, 190.54678345, -0.04343286, 0.05061900, 0.99777317, 0.00815454, -0.01206004, 0.10209560, 0.00000000, 0.00000000, 0.00000000, 0.90499957, 0.42410184, 0.00892949, -0.03215086
424169234.901897, 0.00724792, 0.04855347, 1.25601196, -0.37970818, -1.09635950, 0.18373894, -169.22206116, 138.76548767, 189.21545410, -0.02866234, 0.04700468, 0.99848336, 0.03284325, -0.02179716, 0.16873771, 0.00000000, 0.00000000, 0.00000000, 0.90572313, 0.42297435, 0.00304149, -0.02736909
424169234.917650, 0.00724792, 0.04855347, 1.25601196, -0.48328065, -0.59759977, 0.14675775, -169.90646362, 138.76548767, 189.54827881, -0.01024278, 0.04128705, 0.99909484, 0.01749071, 0.00726642, 0.25691715, 0.00000000, 0.00000000, 0.00000000, 0.90643585, 0.42180737, -0.00406722, -0.02088172
424169234.933188, 0.02331543, 0.02284241, 1.16583252, -0.53644294, -0.63656235, 0.02683641, -169.90646362, 138.76548767, 189.54827881, 0.00135531, 0.03418127, 0.99941474, -0.00062289, 0.00419459, 0.26753777, 0.00000000, 0.00000000, 0.00000000, 0.90705478, 0.42066495, -0.00780639, -0.01522153
424169234.948912, 0.03086853, 0.02499390, 0.87811279, -0.38691789, -0.85823242, -0.01254855, -170.93309021, 139.44990540, 190.21394348, 0.01024460, 0.02593374, 0.99961114, -0.04726242, 0.03603220, -0.00367001, 0.00000000, 0.00000000, 0.00000000, 0.90736824, 0.42010529, -0.01009723, -0.00961569
424169234.965055, 0.16853333, -0.00282288, 0.77520752, -0.25705683, -0.97200613, 0.01367640, -172.98634338, 138.42327881, 191.21244812, 0.02254686, 0.01863994, 0.99957198, 0.09108534, -0.00283184, -0.24362108, 0.00000000, 0.00000000, 0.00000000, 0.90736327, 0.42009273, -0.01414737, -0.00372151
424169234.980042, 0.10945129, 0.02012634, 0.93505859, -0.11314973, -1.09293095, 0.02828969, -172.64413452, 139.44990540, 191.87811279, 0.03725731, 0.01404452, 0.99920702, 0.13127601, -0.01686740, -0.22399949, 0.00000000, 0.00000000, 0.00000000, 0.90731257, 0.41998500, -0.01985913, 0.00145295
424169234.996367, 0.10945129, 0.02012634, 0.93505859, -0.11622035, -1.05890374, 0.05443128, -175.38180542, 138.42327881, 192.54377747, 0.05382660, 0.01147427, 0.99848437, 0.05562470, 0.00865208, -0.06342578, 0.00000000, 0.00000000, 0.00000000, 0.90725484, 0.41967946, -0.02684532, 0.00609453
424169235.011909, 0.04891968, 0.08525085, 1.07427979, 0.00453483, -1.01283265, 0.06111608, -172.98634338, 139.10769653, 191.21244812, 0.07105902, 0.00943121, 0.99742752, -0.02213934, 0.07581964, 0.07685226, 0.00000000, 0.00000000, 0.00000000, 0.90719103, 0.41918754, -0.03425283, 0.01062924
424169235.028540, 0.00122070, 0.06964111, 0.94532776, -0.32011676, -0.87613259, -0.01680535, -174.69738770, 139.44990540, 189.88111877, 0.08686451, 0.00889470, 0.99618042, -0.07038502, 0.06984065, -0.02265443, 0.00000000, 0.00000000, 0.00000000, 0.90716420, 0.41850129, -0.04134036, 0.01416904
424169235.043451, -0.01628113, 0.00395203, 0.62951660, 0.06789916, -1.20322976, -0.09503331, -174.69738770, 139.44990540, 189.88111877, 0.10241348, 0.00611404, 0.99472314, -0.09302932, 0.09293076, 0.15357704, 0.00000000, 0.00000000, 0.00000000, 0.90687644, 0.41825432, -0.04784303, 0.01869442
424169235.059508, 0.17466736, -0.00158691, 0.79714966, -0.34177731, -1.80959106, -0.16995442, -174.52629089, 138.25218201, 190.71319580, 0.11721390, 0.00383345, 0.99309927, -0.13349503, 0.00011857, -0.36358270, 0.00000000, 0.00000000, 0.00000000, 0.90633247, 0.41846278, -0.05410615, 0.02286653
