Timestamp, AccelerationX, AccelerationY, AccelerationZ, GyroX, GyroY, GyroZ, MagnetometerX, MagnetometerY, MagnetometerZ, DMUserAccelerationX, DMUserAccelerationY, DMUserAccelerationZ, DMGravityX, DMGravityY, DMGravityZ, DMMagX, DMMagY, DMMagZ, DMAttitudeX, DMAttitudeY, DMAttitudeZ, DMAttitudeW 
424170329.490511, 0.07324219, -0.34165955, -0.88484192, -0.03499900, -0.06550471, -0.05383394, -157.24476624, 145.95187378, 235.47920227, 0.08102616, -0.31237292, -0.94649774, -0.00778397, -0.02928663, 0.06165579, 0.00000000, 0.00000000, 0.00000000, 0.15808536, -0.04195430, -0.48436131, 0.85944341
424170329.507150, 0.12727356, -0.35917664, -0.96421814, 0.00838949, -0.14024473, -0.02087652, -157.75807190, 144.41192627, 234.97996521, 0.08161968, -0.31317160, -0.94618273, 0.04565388, -0.04600505, -0.01803540, 0.00000000, 0.00000000, 0.00000000, 0.15857849, -0.04197009, -0.48473237, 0.85914254
424170329.522108, 0.09031677, -0.34313965, -0.98335266, 0.05622892, -0.08903906, -0.00322802, -156.38923645, 146.12297058, 234.64712524, 0.07990458, -0.31283703, -0.94643974, 0.03912923, -0.04266222, -0.03993413, 0.00000000, 0.00000000, 0.00000000, 0.15798200, -0.04268257, -0.48499001, 0.85907193
424170329.538225, 0.08296204, -0.34724426, -0.95787048, 0.05493143, -0.09242021, 0.01532410, -159.98242188, 145.95187378, 235.14637756, 0.07805771, -0.31419006, -0.94614565, 0.00145584, -0.03296264, -0.01645506, 0.00000000, 0.00000000, 0.00000000, 0.15812740, -0.04385090, -0.48502265, 0.85896790
424170329.555906, 0.08296204, -0.34724426, -0.95787048, 0.03287779, -0.07002143, 0.03176192, -159.46911621, 145.43855286, 236.97695923, 0.07676052, -0.31488085, -0.94602215, 0.00620152, -0.03236341, -0.01184835, 0.00000000, 0.00000000, 0.00000000, 0.15811769, -0.04458396, -0.48493638, 0.85898066
424170329.571223, 0.07806396, -0.35025024, -0.90542603, -0.01181991, 0.00135874, 0.02084856, -159.29800415, 145.26745605, 236.47770691, 0.07518075, -0.31541055, -0.94597256, 0.00288321, -0.03483970, 0.04054651, 0.00000000, 0.00000000, 0.00000000, 0.15796884, -0.04538255, -0.48476001, 0.85906577
424170329.586262, 0.05810547, -0.34400940, -0.89328003, -0.05765398, -0.00089189, -0.00643606, -160.49574280, 146.12297058, 235.97845459, 0.07460482, -0.31706369, -0.94546533, -0.01649936, -0.02694571, 0.05218533, 0.00000000, 0.00000000, 0.00000000, 0.15859006, -0.04600561, -0.48443137, 0.85910356
424170329.601693, 0.05447388, -0.33964539, -0.92469788, -0.11236170, 0.03797668, 0.00178885, -160.49574280, 146.12297058, 235.97845459, 0.07453518, -0.31617105, -0.94576973, -0.02379970, -0.02689230, 0.04304450, 0.00000000, 0.00000000, 0.00000000, 0.15817545, -0.04577843, -0.48429497, 0.85926902
424170329.617243, 0.08038330, -0.33895874, -0.99449158, -0.05818501, 0.04239646, 0.00941134, -157.92918396, 144.92524719, 238.14187622, 0.07452258, -0.31522045, -0.94608796, -0.00890979, -0.02357043, -0.00711332, 0.00000000, 0.00000000, 0.00000000, 0.15775004, -0.04550759, -0.48413802, 0.85945003
424170329.632985, 0.08038330, -0.33895874, -0.99449158, 0.01783412, 0.01518561, 0.01789724, -157.92918396, 145.60966492, 236.81053162, 0.07507936, -0.31378478, -0.94652110, 0.00950011, -0.01957399, -0.06818836, 0.00000000, 0.00000000, 0.00000000, 0.15724854, -0.04485913, -0.48397100, 0.85967007
424170329.649545, 0.09185791, -0.32989502, -1.00299072, 0.02483211, 0.01285588, 0.02491467, -158.44248962, 145.43855286, 236.31129456, 0.07526200, -0.31355309, -0.94658339, 0.01659591, -0.01634193, -0.05640734, 0.00000000, 0.00000000, 0.00000000, 0.15720042, -0.04468040, -0.48376133, 0.85980618
424170329.664724, 0.07917786, -0.32730103, -0.96519470, 0.02437565, -0.02355779, -0.01294190, -158.61360168, 145.60966492, 236.81053162, 0.07567918, -0.31394473, -0.94642031, 0.00349868, -0.01335630, -0.01877441, 0.00000000, 0.00000000, 0.00000000, 0.15749607, -0.04455157, -0.48350214, 0.85990454
424170329.680331, 0.09974670, -0.34089661, -0.92372131, -0.01056662, 0.00481872, 0.01509986, -158.27139282, 145.95187378, 235.14637756, 0.07535504, -0.31410950, -0.94639146, 0.01195575, -0.02126342, -0.00217114, 0.00000000, 0.00000000, 0.00000000, 0.15749304, -0.04472362, -0.48343080, 0.85993628
424170329.696409, 0.07814026, -0.33676147, -0.91705322, -0.04634247, 0.05060352, 0.02596609, -157.41586304, 145.09634399, 236.31129456, 0.07576218, -0.31521013, -0.94599295, 0.01698074, -0.02750227, 0.03278494, 0.00000000, 0.00000000, 0.00000000, 0.15810512, -0.04479170, -0.48321811, 0.85993996
424170329.713061, 0.07814026, -0.33676147, -0.91705322, -0.07018841, 0.10083740, 0.01142549, -157.41586304, 145.09634399, 236.31129456, 0.07607319, -0.31446454, -0.94621611, -0.00063374, -0.02223590, 0.02717924, 0.00000000, 0.00000000, 0.00000000, 0.15785927, -0.04441168, -0.48294677, 0.86015724
424170329.727918, 0.07124329, -0.33560181, -0.92648315, -0.07167126, 0.08217450, 0.01226226, -157.92918396, 144.24082947, 234.81353760, 0.07726326, -0.31332040, -0.94649917, -0.00601997, -0.02228141, 0.02001604, 0.00000000, 0.00000000, 0.00000000, 0.15765378, -0.04353952, -0.48265932, 0.86040082
424170329.743751, 0.08718872, -0.33406067, -0.97451782, -0.03327034, 0.05750883, 0.02156255, -158.78469849, 145.78076172, 234.64712524, 0.07827004, -0.31252402, -0.94667971, 0.00891868, -0.02153664, -0.02783808, 0.00000000, 0.00000000, 0.00000000, 0.15755954, -0.04283830, -0.48237179, 0.86061450
424170329.759409, 0.09237671, -0.33041382, -0.99649048, 0.00940682, 0.00596362, 0.02929424, -158.95579529, 145.60966492, 234.48071289, 0.07917785, -0.31163061, -0.94689876, 0.01354981, -0.02149929, -0.04238958, 0.00000000, 0.00000000, 0.00000000, 0.15739587, -0.04215644, -0.48208849, 0.86083684
424170329.775566, 0.08460999, -0.33770752, -0.96330261, 0.02358975, 0.01057754, 0.03301095, -158.10028076, 144.75413513, 235.97845459, 0.07937697, -0.31171086, -0.94685566, 0.00677415, -0.02276179, -0.03864849, 0.00000000, 0.00000000, 0.00000000, 0.15749749, -0.04203228, -0.48177456, 0.86100006
424170329.791081, 0.08460999, -0.33770752, -0.96330261, 0.01101324, 0.03281174, 0.03092303, -158.95579529, 144.92524719, 235.47920227, 0.07925940, -0.31187567, -0.94681126, -0.00414038, -0.02569453, 0.00105623, 0.00000000, 0.00000000, 0.00000000, 0.15755543, -0.04207932, -0.48151646, 0.86113153
424170329.806985, 0.07258606, -0.34098816, -0.93353271, -0.00178219, 0.11098830, 0.01463647, -159.64021301, 145.26745605, 236.81053162, 0.07943396, -0.31190640, -0.94678646, -0.00684790, -0.02908175, 0.01325377, 0.00000000, 0.00000000, 0.00000000, 0.15763044, -0.04194524, -0.48115967, 0.86132375
424170329.823133, 0.06431580, -0.34017944, -0.90702820, -0.03171905, 0.22197980, 0.00453856, -159.64021301, 145.26745605, 236.81053162, 0.08013227, -0.31308126, -0.94633979, -0.01581647, -0.02709818, 0.03931156, 0.00000000, 0.00000000, 0.00000000, 0.15835916, -0.04186284, -0.48073116, 0.86143336
424170329.838487, 0.06739807, -0.36154175, -0.89596558, -0.04007205, 0.35735574, -0.00725445, -160.32463074, 145.26745605, 238.80754089, 0.08267706, -0.31258968, -0.94628334, -0.01689642, -0.03521916, 0.04644205, 0.00000000, 0.00000000, 0.00000000, 0.15878875, -0.04055184, -0.48037767, 0.86161417
424170329.854229, 0.03384399, -0.31579590, -0.96757507, 0.01082575, 0.44452020, -0.02389015, -160.32463074, 145.26745605, 237.47621155, 0.08676723, -0.31322524, -0.94570684, -0.02133754, -0.04347946, 0.00658939, 0.00000000, 0.00000000, 0.00000000, 0.16012510, -0.03881420, -0.47982453, 0.86175509
424170329.870040, 0.03384399, -0.31579590, -0.96757507, 0.02827478, 0.36280883, -0.00877778, -159.46911621, 147.14959717, 236.64411926, 0.09317520, -0.31301764, -0.94516575, -0.04706314, -0.03186150, -0.03669153, 0.00000000, 0.00000000, 0.00000000, 0.16165604, -0.03583909, -0.47927363, 0.86190468
424170329.886180, 0.11949158, -0.37214661, -0.98600769, 0.05864787, 0.29667375, 0.08354469, -159.64021301, 144.24082947, 238.14187622, 0.09919555, -0.31320056, -0.94449228, 0.02029603, -0.05894604, -0.04151542, 0.00000000, 0.00000000, 0.00000000, 0.16326451, -0.03314459, -0.47878047, 0.86198341
424170329.901409, 0.17399597, -0.39588928, -0.97628784, 0.13233221, 0.42258028, 0.12366016, -159.12690735, 144.41192627, 237.64262390, 0.10510224, -0.31521922, -0.94318098, 0.06889373, -0.08067004, -0.03310687, 0.00000000, 0.00000000, 0.00000000, 0.16569390, -0.03090377, -0.47794312, 0.86206778
424170329.918098, 0.10942078, -0.34571838, -0.92854309, 0.20557526, 0.65917658, 0.13070262, -159.12690735, 144.41192627, 237.64262390, 0.10996849, -0.31680122, -0.94209552, 0.03454750, -0.06166252, -0.00266769, 0.00000000, 0.00000000, 0.00000000, 0.16768208, -0.02889595, -0.47654353, 0.86252769
424170329.933209, 0.01095581, -0.31094360, -0.82528687, 0.21805643, 1.19922117, 0.07699998, -159.98242188, 143.89862061, 234.81353760, 0.11657710, -0.31988600, -0.94025671, -0.05555720, 0.00322036, 0.04844155, 0.00000000, 0.00000000, 0.00000000, 0.17080398, -0.02641275, -0.47471292, 0.86300406
424170329.948815, 0.01095581, -0.31094360, -0.82528687, 0.23700376, 1.33282637, -0.00902652, -159.98242188, 145.95187378, 237.14337158, 0.13121717, -0.32307366, -0.93723285, -0.12287061, 0.01711967, 0.10399619, 0.00000000, 0.00000000, 0.00000000, 0.17598474, -0.02032072, -0.47249751, 0.86334381
424170329.964988, 0.01777649, -0.29936218, -0.88467407, 0.33710426, 1.24775728, -0.08738178, -159.81132507, 144.41192627, 237.64262390, 0.15062103, -0.32634372, -0.93317366, -0.13284454, 0.02698154, 0.04849959, 0.00000000, 0.00000000, 0.00000000, 0.18238964, -0.01213213, -0.47033792, 0.86334760
424170329.980013, 0.13728333, -0.34295654, -0.97790527, 0.33710426, 1.24775728, -0.08738178, -160.15353394, 145.43855286, 236.97695923, 0.16976525, -0.33049944, -0.92841256, -0.03248193, -0.01245711, -0.04949271, 0.00000000, 0.00000000, 0.00000000, 0.18914143, -0.00438615, -0.46878703, 0.86281226
424170329.996439, 0.29946899, -0.47393799, -1.04658508, 0.58857485, 1.18662762, 0.06669008, -161.52236938, 145.78076172, 236.31129456, 0.18714756, -0.33625734, -0.92298794, 0.11232144, -0.13768063, -0.12359712, 0.00000000, 0.00000000, 0.00000000, 0.19621772, 0.00215062, -0.46743999, 0.86197090
424170330.012382, 0.31053162, -0.51303101, -1.05946350, 0.71436793, 1.64194481, 0.19315694, -161.69346619, 145.95187378, 236.47770691, 0.20353071, -0.34398711, -0.91665047, 0.10648211, -0.17038666, -0.17027883, 0.00000000, 0.00000000, 0.00000000, 0.20398938, 0.00794301, -0.46533934, 0.86126914
424170330.028230, 0.20523071, -0.47164917, -0.97706604, 0.92304844, 2.40816235, 0.26981337, -161.69346619, 145.95187378, 236.47770691, 0.22352049, -0.35406476, -0.90811712, 0.05666140, -0.15048236, -0.08465020, 0.00000000, 0.00000000, 0.00000000, 0.21380585, 0.01511587, -0.46187058, 0.86065913
424170330.043956, 0.20523071, -0.47164917, -0.97706604, 1.28929461, 3.13168090, 0.18562180, -163.74671936, 148.00511169, 236.47770691, 0.25263530, -0.36671540, -0.89537436, -0.04740458, -0.10493376, -0.08169170, 0.00000000, 0.00000000, 0.00000000, 0.22720501, 0.02628139, -0.45650575, 0.85981956
424170330.059558, 0.09579468, -0.39096069, -0.91810608, 1.32121099, 3.40990001, 0.09050620, -166.48439026, 148.34732056, 235.47920227, 0.29148313, -0.38365701, -0.87626761, -0.19568844, -0.00730369, -0.04183849, 0.00000000, 0.00000000, 0.00000000, 0.24528108, 0.04127220, -0.44984921, 0.85777006
424170330.075892, 0.15058899, -0.36453247, -0.91296387, 1.32564835, 3.19837391, -0.13760766, -168.70874023, 147.83401489, 236.31129456, 0.34018490, -0.40337241, -0.84944981, -0.18959589, 0.03883994, -0.06351408, 0.00000000, 0.00000000, 0.00000000, 0.26755400, 0.06074508, -0.44181231, 0.85412339
424170330.091169, 0.32618713, -0.42984009, -0.49972534, 0.82769369, 3.25223688, -0.17332998, -171.10420227, 149.54505920, 236.31129456, 0.38212237, -0.42150462, -0.82238454, -0.16224322, 0.10027660, 0.15459891, 0.00000000, 0.00000000, 0.00000000, 0.28783165, 0.07720533, -0.43602348, 0.84916182
424170330.107424, 0.47300720, -0.62532043, -0.50296021, 0.39626106, 3.56854984, -0.17953434, -172.47303772, 148.86064148, 235.64562988, 0.42458147, -0.43286347, -0.79521054, -0.03558915, -0.09823393, 0.31275815, 0.00000000, 0.00000000, 0.00000000, 0.30527427, 0.09592890, -0.43014749, 0.84414359
424170330.123480, 0.47300720, -0.62532043, -0.50296021, 0.00461366, 3.79946482, -0.18093010, -172.47303772, 148.86064148, 235.64562988, 0.46851814, -0.43831038, -0.76705593, 0.00448907, -0.18701005, 0.26409569, 0.00000000, 0.00000000, 0.00000000, 0.32037991, 0.11759574, -0.42310736, 0.83934982
424170330.138550, 0.51712036, -0.58540344, -0.57556152, -0.14936286, 4.52365874, -0.23795078, -174.35517883, 149.03173828, 235.14637756, 0.51360917, -0.43849275, -0.73751593, 0.00351120, -0.14691068, 0.16195440, 0.00000000, 0.00000000, 0.00000000, 0.33324491, 0.14209107, -0.41469841, 0.83473540
424170330.154484, 0.40304565, -0.46693420, -0.64584351, -0.30123281, 4.92399311, -0.37950046, -176.75064087, 151.08499146, 234.81353760, 0.56379712, -0.43550557, -0.70176047, -0.16075143, -0.03142862, 0.05591694, 0.00000000, 0.00000000, 0.00000000, 0.34612793, 0.17121690, -0.40430589, 0.82910613
424170330.170400, 0.40525818, -0.55577087, -0.57940674, -0.65833529, 5.06239226, -0.59041536, -177.60615540, 149.54505920, 233.64862061, 0.61783266, -0.42981464, -0.65843916, -0.23364688, -0.08022565, 0.00987962, 0.00000000, 0.00000000, 0.00000000, 0.35917234, 0.20439090, -0.39248708, 0.82168941
424170330.186485, 0.53837585, -0.72883606, -0.54188538, -0.65921919, 5.07837656, -0.26776247, -180.34382629, 149.20285034, 230.98596191, 0.67123514, -0.41936678, -0.61120772, -0.20303443, -0.07364468, 0.14883591, 0.00000000, 0.00000000, 0.00000000, 0.37006139, 0.23968874, -0.38035919, 0.81297648
424170330.201666, 0.53837585, -0.72883606, -0.54188538, -0.58192467, 5.08189619, 0.18585243, -182.39707947, 148.86064148, 229.65463257, 0.72193736, -0.40809795, -0.55880451, -0.18356150, -0.32073811, 0.01691915, 0.00000000, 0.00000000, 0.00000000, 0.37995774, 0.27609754, -0.36634747, 0.80323832
424170330.218992, 0.85360718, -0.37767029, -0.38232422, -0.84713556, 6.32308479, 0.01293151, -184.27922058, 149.03173828, 228.48971558, 0.76296645, -0.40358761, -0.50497448, 0.09064071, 0.02591732, 0.12265025, 0.00000000, 0.00000000, 0.00000000, 0.39009256, 0.30877266, -0.34949859, 0.79393826
424170330.233487, 0.78005981, -0.49316406, -0.07992554, -0.43782182, 5.13688834, -0.04566522, -184.27922058, 149.03173828, 228.48971558, 0.80576640, -0.40061542, -0.43617398, -0.02570661, -0.09254863, 0.35624844, 0.00000000, 0.00000000, 0.00000000, 0.40193880, 0.34692680, -0.32791066, 0.78138441
424170330.249629, 0.96066284, -0.36070251, -0.18153381, -0.43734538, 6.56110215, 0.36219896, -185.13475037, 147.49180603, 226.99197388, 0.84150815, -0.39523485, -0.36831167, 0.05459478, -0.10496353, -0.33139536, 0.00000000, 0.00000000, 0.00000000, 0.41165516, 0.38260187, -0.30900298, 0.76725028
424170330.265270, 0.81404114, -0.41238403, -0.28971863, -0.55710454, 6.64566497, 0.34024759, -186.84577942, 148.51843262, 223.33081055, 0.87159294, -0.39612976, -0.28880259, 0.11780218, -0.09042726, 0.03738353, 0.00000000, 0.00000000, 0.00000000, 0.42402041, 0.41929154, -0.28610812, 0.75002896
424170330.280365, 0.81404114, -0.41238403, -0.28971863, -0.40602447, 6.41370736, 0.14707467, -188.21461487, 146.46517944, 220.33531189, 0.89490485, -0.39975283, -0.19835070, -0.08086371, -0.01263121, -0.09136792, 0.00000000, 0.00000000, 0.00000000, 0.43691770, 0.45817853, -0.25926750, 0.72935294
424170330.296859, 0.40631104, -0.34985352, -0.37445068, -0.27038995, 6.54183471, -0.34867516, -189.41235352, 146.29408264, 216.84057617, 0.90906918, -0.40191406, -0.10981034, -0.50275815, 0.05206056, -0.26464033, 0.00000000, 0.00000000, 0.00000000, 0.44737413, 0.49492546, -0.23340703, 0.70740818
424170330.312866, 0.34159851, -0.29254150, -0.14587402, 0.00427890, 6.40462865, -0.77989953, -188.89903259, 146.80738831, 212.68016052, 0.91661423, -0.39936149, -0.01813133, -0.57501572, 0.10681999, -0.12774269, 0.00000000, 0.00000000, 0.00000000, 0.45635584, 0.53167065, -0.20977701, 0.68195254
424170330.328185, 0.57899475, -0.35978699, -0.29640198, 0.40277062, 5.25884354, -0.92057010, -188.89903259, 146.80738831, 212.68016052, 0.91765356, -0.39013886, 0.07552262, -0.46828219, 0.05233978, -0.26309890, 0.00000000, 0.00000000, 0.00000000, 0.46329683, 0.56843412, -0.18909667, 0.65305524
424170330.343867, 0.71015930, -0.38287354, -0.24942017, 0.66991125, 3.79649672, -0.64424450, -189.92565918, 146.46517944, 211.34883118, 0.91245329, -0.37681425, 0.15949924, -0.28009856, 0.04350127, -0.51718050, 0.00000000, 0.00000000, 0.00000000, 0.46853730, 0.60018533, -0.17366118, 0.62457359
424170330.360574, 0.71015930, -0.38287354, -0.24942017, 1.14636408, 3.66824421, -0.19448320, -190.26786804, 145.43855286, 209.01899719, 0.90396726, -0.36433199, 0.22384243, -0.15077816, -0.10348722, -0.37681180, 0.00000000, 0.00000000, 0.00000000, 0.47334793, 0.62278644, -0.16422866, 0.60092240
424170330.376124, 0.73468018, -0.43524170, 0.06939697, 1.40446567, 4.75007058, -0.00030919, -189.24124146, 146.80738831, 208.35333252, 0.89159924, -0.35559967, 0.28035641, -0.15691905, -0.07964204, -0.21095943, 0.00000000, 0.00000000, 0.00000000, 0.48085154, 0.63949980, -0.15723821, 0.57887645
424170330.391368, 0.84472656, -0.32345581, 0.35208130, 1.87578500, 5.66427253, -0.30368559, -190.26786804, 145.78076172, 205.02500916, 0.87025160, -0.34888801, 0.34776336, -0.02552500, 0.02543221, 0.00431793, 0.00000000, 0.00000000, 0.00000000, 0.49173153, 0.65732928, -0.14735214, 0.55172970
424170330.407283, 0.71072388, -0.23646545, 0.49867249, 1.91011900, 5.73398769, -0.70719364, -189.24124146, 146.12297058, 202.36235046, 0.83757490, -0.33609697, 0.43070534, -0.05501267, 0.03255387, -0.07235266, 0.00000000, 0.00000000, 0.00000000, 0.50432486, 0.67897651, -0.13574278, 0.51596631
424170330.422960, 0.68992615, -0.27044678, 0.28924561, 2.07280459, 4.90260366, -0.60997201, -189.24124146, 146.12297058, 202.36235046, 0.79752380, -0.31473097, 0.51468456, -0.11774477, 0.07217725, -0.10404001, 0.00000000, 0.00000000, 0.00000000, 0.51438667, 0.70196056, -0.12498107, 0.47648448
424170330.438938, 0.68992615, -0.27044678, 0.28924561, 1.90094841, 3.23053638, -0.28120771, -187.87240601, 144.75413513, 199.69967651, 0.75464463, -0.28856999, 0.58926976, -0.06943343, -0.01286740, -0.29201332, 0.00000000, 0.00000000, 0.00000000, 0.52307603, 0.72182156, -0.11731204, 0.43772479
424170330.454749, 0.66902161, -0.31724548, 0.29972839, 1.94337922, 2.33266413, -0.09324073, -187.35910034, 146.29408264, 199.53326416, 0.71980244, -0.26550934, 0.64139634, -0.05078083, -0.05173614, -0.34166792, 0.00000000, 0.00000000, 0.00000000, 0.53078757, 0.73414080, -0.11401326, 0.40780242
424170330.471492, 0.70771790, -0.12290955, 0.70013428, 1.78140443, 2.42680847, -0.11314520, -188.55682373, 145.09634399, 198.36834717, 0.69346952, -0.24368361, 0.67802531, 0.01424836, 0.12077405, 0.02210898, 0.00000000, 0.00000000, 0.00000000, 0.53837828, 0.74105431, -0.11487678, 0.38443553
424170330.485785, 0.92846680, -0.06362915, 1.03068542, 1.84320149, 3.16945438, -0.20484982, -188.04351807, 146.63629150, 197.20343018, 0.66824919, -0.22324747, 0.70965034, 0.16376679, 0.12731546, 0.23592159, 0.00000000, 0.00000000, 0.00000000, 0.54539678, 0.74657050, -0.11569091, 0.36302956
424170330.501838, 0.86300659, -0.03547668, 1.15066528, 1.56189152, 3.15673033, -0.24640658, -184.96363831, 143.21420288, 196.87060547, 0.63523829, -0.20062056, 0.74580407, 0.33819616, 0.17719832, 0.38981605, 0.00000000, 0.00000000, 0.00000000, 0.55208982, 0.75372334, -0.11427181, 0.33769797
424170330.518265, 0.86300659, -0.03547668, 1.15066528, 1.44139732, 2.44058234, -0.07339965, -184.96363831, 143.21420288, 196.87060547, 0.59671211, -0.17833270, 0.78238875, 0.13227655, 0.07768574, 0.25493428, 0.00000000, 0.00000000, 0.00000000, 0.55788245, 0.76155206, -0.11057384, 0.31077172
424170330.533676, 0.62763977, -0.08763123, 0.89317322, 1.09872519, 1.51537861, 0.07284758, -185.47695923, 143.04309082, 195.37284851, 0.56261563, -0.15857883, 0.81136703, 0.06502415, 0.07094761, 0.08180621, 0.00000000, 0.00000000, 0.00000000, 0.56292659, 0.76733119, -0.10766940, 0.28761745
424170330.550134, 0.42678833, -0.09310913, 0.97996521, 0.82794802, 1.26278710, -0.05407522, -185.81916809, 143.38529968, 195.37284851, 0.53967088, -0.14360794, 0.82953727, -0.11288254, 0.05049882, 0.15042792, 0.00000000, 0.00000000, 0.00000000, 0.56735884, 0.76998220, -0.10691855, 0.27166115
424170330.565593, 0.45429993, -0.00605774, 1.08863831, 0.60479243, 1.46715941, -0.23688498, -185.30584717, 143.89862061, 195.53927612, 0.52203536, -0.13191251, 0.84266138, -0.11844040, 0.12297086, 0.19556192, 0.00000000, 0.00000000, 0.00000000, 0.57053048, 0.77189743, -0.10637557, 0.25952564
424170330.581041, 0.55720520, -0.04817200, 1.08917236, 0.48345136, 1.75273364, -0.22058058, -183.93701172, 142.52978516, 194.20793152, 0.50396252, -0.12175260, 0.85510123, -0.02027418, 0.07290922, 0.25399914, 0.00000000, 0.00000000, 0.00000000, 0.57193204, 0.77488344, -0.10451626, 0.24804385
424170330.596841, 0.57231140, 0.02961731, 1.06326294, 0.72909095, 2.71488554, -0.71056893, -181.37045288, 140.98985291, 192.71018982, 0.48169145, -0.11308844, 0.86901343, 0.15894881, 0.09956916, 0.14580286, 0.00000000, 0.00000000, 0.00000000, 0.57284787, 0.77868610, -0.10052123, 0.23534818
424170330.612919, 0.57231140, 0.02961731, 1.06326294, 1.32212206, 3.19478424, -0.15516269, -180.17272949, 141.16094971, 192.21093750, 0.45127320, -0.10169848, 0.88657200, 0.12103821, 0.13131580, 0.17669094, 0.00000000, 0.00000000, 0.00000000, 0.57257750, 0.78450048, -0.09467244, 0.21852031
424170330.628510, 0.85084534, -0.12915039, 0.81634521, 1.68949395, 2.87734369, -0.00881586, -180.17272949, 141.16094971, 192.21093750, 0.40606958, -0.08246776, 0.91011351, 0.44477576, -0.04668263, -0.09376828, 0.00000000, 0.00000000, 0.00000000, 0.57443886, 0.79061795, -0.08798516, 0.19287785
424170330.644510, 0.32312012, 0.13923645, 0.80787659, 1.03161380, 1.37228883, 0.09187187, -179.14610291, 139.79211426, 190.54678345, 0.36320627, -0.06005147, 0.92977148, -0.04008617, 0.19928792, -0.12189490, 0.00000000, 0.00000000, 0.00000000, 0.57880345, 0.79364496, -0.08424080, 0.16738502
424170330.659922, 0.33451843, -0.01432800, 1.25807190, 0.05222406, 1.25642907, 0.31249266, -178.80389404, 139.44990540, 190.54678345, 0.33396783, -0.04050266, 0.94171387, 0.07353340, 0.00443088, 0.00636046, 0.00000000, 0.00000000, 0.00000000, 0.58202881, 0.79504679, -0.08352280, 0.14888587
424170330.677183, 0.36543274, 0.00476074, 1.00332642, 0.19128075, 0.90757121, 0.65262787, -178.29057312, 139.96322632, 189.38186646, 0.31466910, -0.03667142, 0.94849277, 0.04989388, -0.01110385, 0.24094509, 0.00000000, 0.00000000, 0.00000000, 0.58466355, 0.79524520, -0.07945259, 0.13943061
424170330.691644, 0.36543274, 0.00476074, 1.00332642, 0.39575746, 1.88729944, 0.90040438, -177.26394653, 139.96322632, 188.71620178, 0.29783449, -0.04007575, 0.95377594, 0.06759825, 0.04483649, 0.04955047, 0.00000000, 0.00000000, 0.00000000, 0.58878963, 0.79386066, -0.07347173, 0.13309370
424170330.707333, 0.29469299, 0.03982544, 1.06048584, 0.89144391, 1.52702648, 0.83787629, -177.26394653, 137.56776428, 190.04753113, 0.27406952, -0.03735259, 0.96098423, 0.02062347, 0.07717802, 0.09950162, 0.00000000, 0.00000000, 0.00000000, 0.59541206, 0.79118683, -0.06814508, 0.12191856
424170330.725761, 0.11651611, -0.01802063, 0.82757568, 1.21511012, 0.82339109, 0.59091044, -177.77726746, 139.79211426, 190.54678345, 0.24780791, -0.03029487, 0.96833539, -0.13129179, 0.01227424, -0.14075972, 0.00000000, 0.00000000, 0.00000000, 0.60244360, 0.78818108, -0.06371497, 0.10850207
424170330.739020, -0.13796997, -0.04078674, 0.87658691, 0.93870596, 0.21966951, 0.11239339, -177.77726746, 139.79211426, 190.54678345, 0.23097445, -0.01580434, 0.97283143, -0.26927403, 0.02917104, -0.11411258, 0.00000000, 0.00000000, 0.00000000, 0.60831901, 0.78508834, -0.06493122, 0.09678953
424170330.754939, -0.12301636, -0.11950684, 0.96725464, 0.51438344, -0.07878003, -0.39748638, -176.75064087, 139.79211426, 190.21394348, 0.22551557, -0.00020474, 0.97423953, -0.37866804, -0.12600070, 0.06505184, 0.00000000, 0.00000000, 0.00000000, 0.61107940, 0.78339118, -0.06972180, 0.08954943
424170330.770863, -0.12301636, -0.11950684, 0.96725464, 0.65080174, 1.13551756, -0.79129440, -177.60615540, 139.27880859, 190.71319580, 0.22496217, 0.00992163, 0.97431695, -0.34797853, -0.12942846, -0.00706234, 0.00000000, 0.00000000, 0.00000000, 0.61015432, 0.78413659, -0.07346417, 0.08628166
424170330.786751, -0.06767273, -0.16250610, 1.22053528, 0.66628935, 1.81311123, -1.06380609, -177.43505859, 139.10769653, 190.87960815, 0.21623193, 0.02071962, 0.97612214, -0.28390464, -0.18322572, 0.24441312, 0.00000000, 0.00000000, 0.00000000, 0.60674023, 0.78735466, -0.07464634, 0.07979253
424170330.802223, -0.00422668, -0.02828979, 1.20428467, 0.03185008, 1.75210540, -1.29956615, -176.06622314, 139.44990540, 190.21394348, 0.18878216, 0.03492599, 0.98139769, -0.19300884, -0.06321578, 0.22288695, 0.00000000, 0.00000000, 0.00000000, 0.60216663, 0.79252394, -0.07134257, 0.06489516
424170330.818315, 0.08425903, 0.12600708, 1.09014893, 0.07848416, 1.87693362, -1.26906257, -174.86849976, 138.25218201, 190.71319580, 0.16074605, 0.04138445, 0.98612779, -0.15000387, 0.03678633, 0.24638563, 0.00000000, 0.00000000, 0.00000000, 0.59555496, 0.79898572, -0.06484915, 0.05225599
424170330.833686, 0.18057251, 0.11689758, 1.07125854, -0.08559533, 1.96313162, -1.06332858, -174.86849976, 138.25218201, 190.71319580, 0.13124120, 0.04482928, 0.99033636, 0.01174891, 0.08419904, 0.06151302, 0.00000000, 0.00000000, 0.00000000, 0.58834623, 0.80561585, -0.05694035, 0.03987007
424170330.850053, 0.18057251, 0.11689758, 1.07125854, 0.10424012, 1.02274334, -0.82448618, -173.84187317, 138.93659973, 190.04753113, 0.09926610, 0.04619414, 0.99398810, 0.08130641, 0.07070345, 0.07727045, 0.00000000, 0.00000000, 0.00000000, 0.58198425, 0.81134973, -0.04776905, 0.02690852
424170330.865499, 0.20541382, 0.20675659, 0.84085083, 0.30980340, 0.18869375, -0.55227969, -173.67076111, 139.10769653, 188.88261414, 0.07710113, 0.04765860, 0.99588358, 0.12831269, 0.15909798, -0.15503274, 0.00000000, 0.00000000, 0.00000000, 0.57675638, 0.81565548, -0.04175673, 0.01773678
424170330.880984, 0.26966858, 0.20899963, 0.91291809, 0.32513628, -0.11323415, -0.28364876, -172.81524658, 137.22555542, 188.71620178, 0.06940327, 0.05186211, 0.99623966, 0.20026532, 0.15713753, -0.08332159, 0.00000000, 0.00000000, 0.00000000, 0.57284848, 0.81851357, -0.04118113, 0.01357472
424170330.897030, 0.26538086, 0.18267822, 1.16943359, -0.04129178, 0.11152200, -0.12426842, -171.95971680, 136.37004089, 189.54827881, 0.07037837, 0.05761914, 0.99585485, 0.20711796, 0.13235278, 0.05344628, 0.00000000, 0.00000000, 0.00000000, 0.57057007, 0.81998612, -0.04379211, 0.01244255
424170330.913008, 0.21034241, 0.17793274, 1.12626648, -0.31392837, 0.37151257, -0.03664563, -171.27529907, 136.37004089, 188.54977417, 0.06965294, 0.05891299, 0.99583018, 0.16093788, 0.13502622, 0.17940177, 0.00000000, 0.00000000, 0.00000000, 0.56958316, 0.82066443, -0.04410242, 0.01182758
424170330.930233, 0.21034241, 0.17793274, 1.12626648, -0.26289874, 0.69955463, 0.01591931, -170.59088135, 137.39665222, 189.54827881, 0.06513251, 0.05498644, 0.99636048, 0.14520989, 0.12294631, 0.12990598, 0.00000000, 0.00000000, 0.00000000, 0.56935553, 0.82098388, -0.04118822, 0.01110316
424170330.944737, 0.17924500, 0.12658691, 0.97346497, 0.05850406, 1.00256856, 0.03480752, -170.59088135, 137.39665222, 189.54827881, 0.05618219, 0.04993482, 0.99717104, 0.12306281, 0.07665209, -0.02370607, 0.00000000, 0.00000000, 0.00000000, 0.56958397, 0.82107224, -0.03655199, 0.00885631
424170330.960154, 0.13761902, 0.10755920, 0.87367249, 0.23605541, 0.91624806, 0.01194188, -169.90646362, 137.73886108, 187.55128479, 0.04125251, 0.04883315, 0.99795467, 0.09636651, 0.05872605, -0.12428220, 0.00000000, 0.00000000, 0.00000000, 0.57013694, 0.82092704, -0.03183658, 0.00301494
424170330.976951, 0.08860779, 0.13293457, 0.91386414, 0.39348232, 0.76269205, 0.04710093, -169.22206116, 136.37004089, 188.54977417, 0.02615465, 0.05153164, 0.99832880, 0.08183181, 0.06905857, -0.10141719, 0.00000000, 0.00000000, 0.00000000, 0.57058035, 0.82073289, -0.02863244, -0.00397180
424170330.991890, 0.03881836, 0.10054016, 1.03425598, 0.40461087, 0.73133999, 0.08393804, -169.90646362, 137.73886108, 187.21844482, 0.01353409, 0.05677520, 0.99829525, 0.05215500, 0.07205475, -0.02689022, 0.00000000, 0.00000000, 0.00000000, 0.57102489, 0.82041343, -0.02717689, -0.01066734
424170331.007556, 0.03881836, 0.10054016, 1.03425598, 0.28735801, 0.74565475, 0.02941461, -169.90646362, 137.05444336, 189.21545410, 0.00182772, 0.06299409, 0.99801224, -0.00858736, 0.02956572, 0.08465989, 0.00000000, 0.00000000, 0.00000000, 0.57171209, 0.81984840, -0.02637148, -0.01727519
424170331.023732, -0.05276489, 0.09233093, 1.14634705, 0.17070223, 0.78772710, -0.06653828, -170.76199341, 137.56776428, 189.71469116, -0.00965815, 0.06805903, 0.99763453, -0.04310674, 0.02427191, 0.14871250, 0.00000000, 0.00000000, 0.00000000, 0.57226079, 0.81935027, -0.02514834, -0.02345821
424170331.039120, -0.02568054, 0.08894348, 1.17663574, 0.03371961, 0.60978692, -0.08257743, -170.76199341, 137.56776428, 189.71469116, -0.02193382, 0.07110109, 0.99722791, -0.00374672, 0.01784239, 0.17940782, 0.00000000, 0.00000000, 0.00000000, 0.57224745, 0.81923551, -0.02288020, -0.02936890
424170331.055028, 0.04965210, 0.11970520, 1.14797974, -0.04607801, 0.20927333, 0.01348758, -170.93309021, 136.37004089, 191.21244812, -0.03299756, 0.07212930, 0.99684930, 0.04271741, 0.03585715, 0.17798591, 0.00000000, 0.00000000, 0.00000000, 0.57191251, 0.81935385, -0.02014559, -0.03419804
424170331.070655, 0.06150818, 0.11503601, 1.14537048, -0.08239181, 0.03651913, 0.17200372, -170.76199341, 137.90997314, 189.04902649, -0.03858251, 0.07154417, 0.99669093, 0.11409827, 0.04719973, 0.12789708, 0.00000000, 0.00000000, 0.00000000, 0.57188455, 0.81932504, -0.01830688, -0.03632341
424170331.087572, 0.06150818, 0.11503601, 1.14537048, -0.14187431, -0.07880054, 0.15781866, -170.93309021, 138.08106995, 190.21394348, -0.03972036, 0.07026941, 0.99673694, 0.04326040, 0.01604956, 0.12353285, 0.00000000, 0.00000000, 0.00000000, 0.57285056, 0.81866397, -0.01741502, -0.03644521
424170331.102368, -0.06471252, 0.06971741, 1.11552429, -0.09892738, 0.07185768, 0.01878913, -170.41978455, 137.90997314, 190.04753113, -0.03862596, 0.06826545, 0.99691921, -0.02608657, 0.00145196, 0.11860511, 0.00000000, 0.00000000, 0.00000000, 0.57406723, 0.81786699, -0.01685504, -0.03544453
424170331.118266, -0.13259888, 0.03131104, 1.05018616, -0.04072106, 0.35402066, -0.17142448, -169.22206116, 139.44990540, 188.88261414, -0.03868289, 0.06604743, 0.99706638, -0.09391598, -0.03473639, 0.05311977, 0.00000000, 0.00000000, 0.00000000, 0.57464832, 0.81750382, -0.01590581, -0.03483983
424170331.133917, -0.07807922, 0.02095032, 1.02507019, 0.07640636, 0.65852224, -0.28266978, -169.39315796, 137.56776428, 189.71469116, -0.04266690, 0.06489392, 0.99697959, -0.07485629, -0.04853650, 0.04251015, 0.00000000, 0.00000000, 0.00000000, 0.57408222, 0.81787493, -0.01431201, -0.03612988
424170331.150257, 0.03997803, 0.03944397, 1.01626587, 0.11540968, 0.89671324, -0.23638617, -169.39315796, 137.56776428, 189.71469116, -0.05180354, 0.06498972, 0.99654037, 0.03552241, -0.03622689, -0.00148423, 0.00000000, 0.00000000, 0.00000000, 0.57256628, 0.81880282, -0.01179681, -0.03988289
424170331.165714, 0.03997803, 0.03944397, 1.01626587, -0.35337937, 0.16925667, -0.12423380, -169.05094910, 138.25218201, 189.71469116, -0.06526447, 0.06633221, 0.99566090, 0.11444355, 0.00179828, 0.01228895, 0.00000000, 0.00000000, 0.00000000, 0.57100000, 0.81962762, -0.00856944, -0.04578346
424170331.180863, 0.05041504, 0.08927917, 0.97467041, -0.24822179, 0.09043163, 0.05944069, -168.19543457, 137.39665222, 188.54977417, -0.07535340, 0.06545195, 0.99500650, 0.12576844, 0.02382723, -0.02033608, 0.00000000, 0.00000000, 0.00000000, 0.57007543, 0.82007149, -0.00537249, -0.04967790
424170331.197064, -0.02995300, 0.23809814, 1.22207642, -0.19563129, 0.15354162, 0.11923745, -168.87985229, 136.37004089, 188.88261414, -0.07405047, 0.05614115, 0.99567300, 0.04409747, 0.18195699, 0.22640343, 0.00000000, 0.00000000, 0.00000000, 0.57044107, 0.82002042, -0.00190184, -0.04647461
424170331.212988, -0.04605103, -0.01083374, 0.90126038, -0.29673900, -0.22829948, 0.00472977, -166.82659912, 138.42327881, 189.21545410, -0.07555104, 0.05412527, 0.99567187, 0.06665517, -0.09129568, 0.12417065, 0.00000000, 0.00000000, 0.00000000, 0.57127056, 0.81944242, -0.00059752, -0.04651561
424170331.230512, -0.14184570, 0.11221313, 0.92803955, -0.24000488, -0.53053018, -0.12076743, -167.85322571, 136.37004089, 187.55128479, -0.07493474, 0.04842273, 0.99601203, -0.04089472, -0.00362293, -0.31165537, 0.00000000, 0.00000000, 0.00000000, 0.57180007, 0.81917685, 0.00159363, -0.04462545
424170331.246171, -0.02793884, 0.05984497, 0.99037170, -0.14363733, -0.55486082, -0.19582037, -167.68211365, 138.59439087, 188.38336182, -0.06667705, 0.04396168, 0.99680567, -0.00323872, 0.03549083, 0.03418493, 0.00000000, 0.00000000, 0.00000000, 0.57141355, 0.81968860, 0.00103429, -0.03995117
424170331.260368, -0.02793884, 0.05984497, 0.99037170, -0.32795124, -0.52698712, -0.19262298, -167.68211365, 138.59439087, 188.38336182, -0.05840700, 0.04093205, 0.99745333, 0.03046816, 0.01891292, -0.00708165, 0.00000000, 0.00000000, 0.00000000, 0.57050072, 0.82052154, -0.00013236, -0.03568342
424170331.276653, 0.01995850, 0.08552551, 0.97531128, -0.62190537, -0.48493207, -0.06812552, -169.05094910, 137.90997314, 189.71469116, -0.04909826, 0.03725640, 0.99809885, 0.06905676, 0.04826912, -0.02278757, 0.00000000, 0.00000000, 0.00000000, 0.56930532, 0.82154785, -0.00132927, -0.03080270
424170331.292504, -0.05691528, 0.05200195, 1.03292847, -0.42875376, -0.37911083, 0.03924248, -169.56427002, 139.44990540, 189.21545410, -0.04130246, 0.02857614, 0.99873793, -0.01561282, 0.02342581, 0.03419051, 0.00000000, 0.00000000, 0.00000000, 0.56880468, 0.82208894, 0.00000045, -0.02512012
424170331.307968, 0.01959229, -0.03294373, 1.19560242, -0.31411879, -0.10708278, 0.15089338, -169.73536682, 139.96322632, 188.71620178, -0.03310885, 0.01989626, 0.99925369, -0.09410367, -0.01013063, 0.15937668, 0.00000000, 0.00000000, 0.00000000, 0.56909789, 0.82204285, 0.00124377, -0.01927710
424170331.323835, -0.01724243, -0.02818298, 1.11569214, -0.07576640, 0.00603233, 0.15526948, -171.10420227, 139.62101746, 189.04902649, -0.03182733, 0.01386714, 0.99939716, 0.04650629, -0.03297115, -0.14325704, 0.00000000, 0.00000000, 0.00000000, 0.57000660, 0.82145667, 0.00337628, -0.01702970
424170331.339246, -0.01724243, -0.02818298, 1.11569214, -0.00184051, -0.01682479, 0.11026818, -170.93309021, 138.76548767, 189.54827881, -0.03166821, 0.01306558, 0.99941301, 0.01442578, -0.04124856, 0.11627910, 0.00000000, 0.00000000, 0.00000000, 0.57107412, 0.82071973, 0.00368194, -0.01673098
424170331.355301, -0.02084351, 0.00993347, 1.01290894, 0.01401755, -0.01070324, -0.01981871, -170.93309021, 138.76548767, 189.54827881, -0.03048453, 0.01504883, 0.99942195, 0.00964102, -0.00511536, 0.01348699, 0.00000000, 0.00000000, 0.00000000, 0.57207644, 0.82002410, 0.00255027, -0.01680842
424170331.371073, -0.02293396, 0.00820923, 1.02963257, -0.00440380, 0.00909203, -0.04412166, -170.59088135, 139.79211426, 189.54827881, -0.03031020, 0.01498889, 0.99942815, 0.00737624, -0.00677966, 0.03020442, 0.00000000, 0.00000000, 0.00000000, 0.57231951, 0.81985636, 0.00252991, -0.01671900
424170331.387621, -0.00521851, -0.01747131, 0.99411011, 0.00367197, 0.00573112, -0.01383273, -171.10420227, 139.96322632, 188.71620178, -0.03036083, 0.01472544, 0.99943054, 0.03380932, -0.07220530, -0.01844298, 0.00000000, 0.00000000, 0.00000000, 0.57214725, 0.81997731, 0.00264892, -0.01666490
424170331.403194, -0.01766968, 0.05273438, 0.99874878, -0.00147379, -0.00306743, 0.06976603, -169.39315796, 138.59439087, 189.71469116, -0.02885820, 0.01242998, 0.99950624, 0.00963213, 0.02521346, -0.00809693, 0.00000000, 0.00000000, 0.00000000, 0.57207657, 0.82004970, 0.00315873, -0.01539183
424170331.418680, -0.01766968, 0.05273438, 0.99874878, -0.03198004, 0.01495685, 0.12677845, -170.07757568, 137.22555542, 190.38035583, -0.02888647, 0.01228655, 0.99950719, 0.01121680, 0.04044783, -0.00075841, 0.00000000, 0.00000000, 0.00000000, 0.57243420, 0.81980039, 0.00323234, -0.01536098
424170331.434248, -0.02554321, 0.01869202, 0.99128723, -0.01133308, -0.00102132, 0.20470734, -169.39315796, 139.62101746, 188.38336182, -0.02878940, 0.01215339, 0.99951160, 0.00324619, 0.00653863, -0.00822438, 0.00000000, 0.00000000, 0.00000000, 0.57335669, 0.81915683, 0.00327633, -0.01527936
424170331.450931, 0.01794434, -0.01405334, 0.99549866, -0.01364444, -0.00708720, 0.16500973, -168.19543457, 138.08106995, 188.54977417, -0.02883898, 0.01170906, 0.99951547, 0.04678331, -0.02576240, -0.00401683, 0.00000000, 0.00000000, 0.00000000, 0.57455087, 0.81832087, 0.00349469, -0.01516717
424170331.465770, -0.05323792, 0.03839111, 0.99211121, -0.00006232, 0.01452115, 0.08404111, -168.19543457, 138.08106995, 188.54977417, -0.02874530, 0.01145022, 0.99952120, 0.00892413, 0.01294859, 0.00002105, 0.00000000, 0.00000000, 0.00000000, 0.57587530, 0.81739111, 0.00359806, -0.01504863
424170331.480970, 0.06024170, -0.04826355, 0.99920654, -0.01788925, 0.02814189, 0.19581478, -169.39315796, 139.27880859, 189.38186646, -0.03031697, 0.01282845, 0.99945801, 0.01160969, -0.02019844, -0.01094788, 0.00000000, 0.00000000, 0.00000000, 0.57658474, 0.81687150, 0.00350150, -0.01608524
424170331.497826, 0.06024170, -0.04826355, 0.99920654, 0.00411884, 0.01543089, 0.23656807, -167.85322571, 138.08106995, 188.54977417, -0.03064008, 0.01241680, 0.99945337, 0.09088178, -0.06068034, -0.00024681, 0.00000000, 0.00000000, 0.00000000, 0.57784707, 0.81597760, 0.00378776, -0.01609271
424170331.513120, 0.01031494, -0.02388000, 0.98072815, 0.02012817, 0.00656070, 0.32736961, -168.53764343, 140.13432312, 188.54977417, -0.02856888, 0.01021962, 0.99953955, 0.03888382, -0.03409962, -0.01881143, 0.00000000, 0.00000000, 0.00000000, 0.57926834, 0.81499570, 0.00411100, -0.01460507
424170331.529258, -0.06936646, 0.00227356, 0.98889160, 0.01932043, 0.01791855, 0.27517618, -170.24867249, 138.08106995, 187.55128479, -0.02877592, 0.01041174, 0.99953169, -0.04059054, -0.00813818, -0.01064006, 0.00000000, 0.00000000, 0.00000000, 0.58138829, 0.81348232, 0.00413107, -0.01473443
424170331.544900, -0.05261230, 0.03297424, 0.99453735, 0.00043383, -0.01429558, 0.14408660, -170.59088135, 139.10769653, 189.88111877, -0.02892140, 0.01065755, 0.99952489, -0.08393260, 0.05152201, -0.00588779, 0.00000000, 0.00000000, 0.00000000, 0.58337687, 0.81205533, 0.00410975, -0.01485510
424170331.560681, -0.02595520, 0.05262756, 1.00904846, -0.02938053, -0.00350738, -0.02713442, -170.76199341, 139.96322632, 189.71469116, -0.02890029, 0.01073958, 0.99952459, -0.04704271, 0.09659074, 0.00026177, 0.00000000, 0.00000000, 0.00000000, 0.58486199, 0.81098629, 0.00409749, -0.01486299
424170331.576758, -0.02595520, 0.05262756, 1.00904846, -0.02868890, 0.04209472, -0.01356321, -170.76199341, 139.96322632, 189.71469116, -0.02867244, 0.01007849, 0.99953806, 0.00271724, 0.04254908, 0.00951041, 0.00000000, 0.00000000, 0.00000000, 0.58483811, 0.81100765, 0.00429850, -0.01457729
424170331.592173, -0.00257874, -0.00080872, 0.97225952, 0.05977944, -0.02033244, -0.02648487, -169.90646362, 140.47653198, 190.21394348, -0.02915831, 0.00924939, 0.99953198, 0.02657958, -0.01005810, -0.02727249, 0.00000000, 0.00000000, 0.00000000, 0.58481544, 0.81102213, 0.00477650, -0.01453201
424170331.607835, -0.00703430, -0.00331116, 1.00872803, 0.03414279, -0.00502538, -0.02766092, -171.27529907, 140.13432312, 190.21394348, -0.02921385, 0.00953043, 0.99952775, 0.02217955, -0.01284159, 0.00920028, 0.00000000, 0.00000000, 0.00000000, 0.58481730, 0.81101948, 0.00467880, -0.01463674
424170331.624234, -0.01649475, 0.01039124, 0.99864197, -0.01161218, 0.00579211, -0.01748312, -169.90646362, 139.44990540, 188.54977417, -0.02897451, 0.01000272, 0.99953008, 0.00709340, -0.00641690, 0.01305840, 0.00000000, 0.00000000, 0.00000000, 0.58468544, 0.81111527, 0.00441485, -0.01467850
424170331.639378, -0.01878357, 0.01385498, 1.00093079, -0.01058953, -0.00474815, -0.02230371, -169.73536682, 138.93659973, 188.38336182, -0.02916152, 0.00981578, 0.99952650, 0.00523574, 0.00178090, -0.01805069, 0.00000000, 0.00000000, 0.00000000, 0.58470179, 0.81110238, 0.00454567, -0.01469962
424170331.655171, -0.01878357, 0.01385498, 1.00093079, 0.01329929, 0.01970899, -0.01000736, -168.36653137, 139.27880859, 187.71769714, -0.02908610, 0.00939155, 0.99953282, 0.01112651, 0.00150322, 0.00136748, 0.00000000, 0.00000000, 0.00000000, 0.58466048, 0.81113409, 0.00469494, -0.01454520
424170331.671231, -0.01499939, 0.00749207, 0.97988892, 0.03511990, -0.01788579, -0.03019306, -168.36653137, 139.27880859, 187.71769714, -0.02935328, 0.00913874, 0.99952734, 0.01435389, -0.00164667, -0.01963841, 0.00000000, 0.00000000, 0.00000000, 0.58469225, 0.81110951, 0.00487621, -0.01457948
424170331.687281, -0.01060486, 0.00096130, 0.99929810, 0.01528947, -0.00607627, -0.02554744, -168.19543457, 139.44990540, 190.21394348, -0.02932917, 0.00935745, 0.99952602, 0.01872431, -0.00839615, -0.00022791, 0.00000000, 0.00000000, 0.00000000, 0.58470887, 0.81109712, 0.00478075, -0.01463356
424170331.702722, -0.01710510, 0.00601196, 0.99961853, -0.01393313, 0.00934983, -0.01046436, -168.70874023, 139.27880859, 187.38487244, -0.02910975, 0.00952113, 0.99953085, 0.01603297, -0.00631678, 0.00728980, 0.00000000, 0.00000000, 0.00000000, 0.58459299, 0.81118215, 0.00464808, -0.01459307
424170331.718531, -0.02229309, 0.00810242, 0.99317932, 0.00582274, -0.00833143, -0.02102859, -168.53764343, 138.42327881, 188.21694946, -0.02858571, 0.00900051, 0.99955082, 0.01097706, -0.00344631, -0.00818730, 0.00000000, 0.00000000, 0.00000000, 0.58461265, 0.81117413, 0.00470635, -0.01422809
424170331.734506, -0.02229309, 0.00810242, 0.99317932, 0.01072934, 0.00809894, -0.00208099, -168.53764343, 139.44990540, 188.21694946, -0.02858838, 0.00880347, 0.99955249, 0.00898083, -0.00099097, -0.00837208, 0.00000000, 0.00000000, 0.00000000, 0.58461572, 0.81117243, 0.00478711, -0.01417155
424170331.750716, -0.01997375, 0.01148987, 0.98719788, 0.02342197, -0.01434192, -0.03374811, -169.22206116, 139.10769653, 189.54827881, -0.02863310, 0.00875726, 0.99955165, 0.00865934, 0.00273261, -0.01235375, 0.00000000, 0.00000000, 0.00000000, 0.58464093, 0.81115399, 0.00481938, -0.01417603
424170331.765896, -0.01516724, 0.00695801, 0.99711609, 0.00480088, 0.00100561, -0.02204725, -171.10420227, 138.93659973, 188.71620178, -0.02719740, 0.00877992, 0.99959153, 0.01203016, -0.00182191, -0.00247543, 0.00000000, 0.00000000, 0.00000000, 0.58460514, 0.81119208, 0.00438966, -0.01360033
424170331.782247, -0.01681519, 0.00430298, 0.99609375, -0.00218273, 0.00931467, -0.00568691, -171.10420227, 138.93659973, 188.71620178, -0.02643859, 0.00850131, 0.99961430, 0.01185119, -0.00476291, 0.00146908, 0.00000000, 0.00000000, 0.00000000, 0.58450784, 0.81126921, 0.00427918, -0.01321150
424170331.797612, -0.01985168, 0.00708008, 0.98915100, 0.01644901, -0.00485148, -0.01503994, -169.56427002, 140.13432312, 189.54827881, -0.02561960, 0.00786348, 0.99964082, 0.00978097, -0.00380465, -0.00878085, 0.00000000, 0.00000000, 0.00000000, 0.58452258, 0.81126677, 0.00429870, -0.01269263
424170331.813308, -0.01985168, 0.00708008, 0.98915100, 0.01883308, -0.00371777, -0.01848793, -171.95971680, 140.81874084, 190.54678345, -0.02512804, 0.00777907, 0.99965400, 0.00722948, -0.00002760, -0.00426213, 0.00000000, 0.00000000, 0.00000000, 0.58456837, 0.81123782, 0.00418992, -0.01246826
424170331.830953, -0.01722717, 0.00946045, 0.99090576, 0.01303324, 0.00096833, -0.02079822, -170.24867249, 142.18757629, 190.21394348, -0.02476644, 0.00802694, 0.99966103, 0.00753926, 0.00143351, -0.00875528, 0.00000000, 0.00000000, 0.00000000, 0.58455994, 0.81124607, 0.00398350, -0.01239405
424170331.845807, -0.01380920, 0.00985718, 0.99188232, 0.00121973, -0.00368688, -0.02914617, -171.44641113, 139.62101746, 190.38035583, -0.02399153, 0.00818939, 0.99967861, 0.01018232, 0.00166779, -0.00779629, 0.00000000, 0.00000000, 0.00000000, 0.58453201, 0.81127162, 0.00369059, -0.01212725
424170331.860795, -0.01443481, 0.00596619, 0.99285889, 0.01530998, -0.00251056, -0.01501251, -172.81524658, 140.30543518, 190.38035583, -0.02359610, 0.00796647, 0.99968982, 0.00823050, -0.00248856, 0.00040172, 0.00000000, 0.00000000, 0.00000000, 0.58448107, 0.81131177, 0.00366466, -0.01190187
424170331.877598, -0.01876831, 0.00338745, 0.99060059, 0.01289183, -0.00958711, -0.02912300, -169.73536682, 139.62101746, 190.38035583, -0.02293290, 0.00763791, 0.99970782, 0.00883378, -0.00460141, -0.01087726, 0.00000000, 0.00000000, 0.00000000, 0.58446132, 0.81133154, 0.00360379, -0.01153681
424170331.892580, -0.01876831, 0.00338745, 0.99060059, 0.01899766, 0.00799721, -0.01130725, -169.73536682, 139.62101746, 190.38035583, -0.02258880, 0.00754132, 0.99971640, 0.00345428, 0.00071369, -0.00606405, 0.00000000, 0.00000000, 0.00000000, 0.58442947, 0.81135713, 0.00354193, -0.01136909
424170331.908270, -0.01977539, 0.00582886, 0.99638367, 0.01180712, -0.00133824, -0.01735742, -171.10420227, 138.93659973, 189.71469116, -0.02248096, 0.00752551, 0.99971896, 0.00270556, -0.00169665, -0.00333528, 0.00000000, 0.00000000, 0.00000000, 0.58435256, 0.81141331, 0.00351575, -0.01132104
424170331.924342, -0.01643372, 0.00796509, 0.99288940, 0.01300262, -0.00017737, -0.01732573, -169.39315796, 138.59439087, 189.38186646, -0.02216805, 0.00755611, 0.99972570, 0.00573434, 0.00040898, -0.00683630, 0.00000000, 0.00000000, 0.00000000, 0.58436492, 0.81140649, 0.00341205, -0.01120295
424170331.939773, -0.01564026, 0.00527954, 0.99060059, 0.00492791, 0.01038659, -0.01490571, -168.53764343, 139.44990540, 188.88261414, -0.02198030, 0.00743146, 0.99973077, 0.00588228, -0.00216717, -0.00089045, 0.00000000, 0.00000000, 0.00000000, 0.58436079, 0.81141103, 0.00340769, -0.01109035
424170331.955994, -0.01823425, 0.00212097, 0.99458313, 0.00712609, -0.00255903, -0.03022928, -169.39315796, 138.93659973, 187.71769714, -0.02176735, 0.00717650, 0.99973732, 0.00371621, -0.00307189, -0.00912146, 0.00000000, 0.00000000, 0.00000000, 0.58433991, 0.81142808, 0.00344861, -0.01092951
424170331.971756, -0.01823425, 0.00212097, 0.99458313, 0.01537177, -0.00021865, -0.02195696, -168.87985229, 139.10769653, 187.88410950, -0.02150888, 0.00699133, 0.99974424, 0.00345774, -0.00215429, -0.00812129, 0.00000000, 0.00000000, 0.00000000, 0.58426529, 0.81148394, 0.00344721, -0.01077083
424170331.987482, -0.01931763, 0.00581360, 0.99311829, 0.00593991, -0.00133504, -0.02207414, -168.87985229, 139.10769653, 187.88410950, -0.02144556, 0.00695239, 0.99974585, 0.00212794, -0.00113879, -0.00662756, 0.00000000, 0.00000000, 0.00000000, 0.58422078, 0.81151648, 0.00344392, -0.01073394
424170332.003030, -0.01741028, 0.00775146, 0.99514771, 0.01299170, -0.00135874, -0.01967330, -168.70874023, 138.59439087, 188.05053711, -0.02115953, 0.00696562, 0.99975187, 0.00374926, 0.00078584, -0.00460414, 0.00000000, 0.00000000, 0.00000000, 0.58414958, 0.81156958, 0.00335404, -0.01062202
424170332.019270, -0.01820374, 0.01022339, 0.99241638, 0.01650175, -0.00134223, -0.01381701, -169.56427002, 138.76548767, 188.21694946, -0.02097420, 0.00704956, 0.99975514, 0.00277046, 0.00317382, -0.00733878, 0.00000000, 0.00000000, 0.00000000, 0.58412885, 0.81158553, 0.00326555, -0.01057140
424170332.034886, -0.01824951, 0.00311279, 0.99334717, 0.02233433, -0.00728907, -0.02665798, -170.93309021, 138.42327881, 187.88410950, -0.02085246, 0.00698720, 0.99975812, 0.00499858, -0.00169240, -0.00764694, 0.00000000, 0.00000000, 0.00000000, 0.58409712, 0.81160928, 0.00325488, -0.01050390
424170332.051175, -0.01806641, 0.00506592, 0.99487305, 0.00596708, -0.00018216, -0.02438231, -170.41978455, 137.90997314, 190.04753113, -0.02065369, 0.00693634, 0.99976265, 0.00266357, -0.00408294, -0.00415716, 0.00000000, 0.00000000, 0.00000000, 0.58406685, 0.81163244, 0.00321707, -0.01040848
424170332.066008, -0.01806641, 0.00506592, 0.99487305, 0.00477025, -0.00013982, -0.01857502, -169.39315796, 139.62101746, 189.71469116, -0.02056246, 0.00679553, 0.99976546, 0.00249605, -0.00172961, -0.00489243, 0.00000000, 0.00000000, 0.00000000, 0.58399490, 0.81168510, 0.00324665, -0.01033061
424170332.081598, -0.01524353, 0.00941467, 0.99313354, 0.01059672, -0.00367330, -0.01857315, -169.39315796, 139.62101746, 189.71469116, -0.02032403, 0.00670488, 0.99977094, 0.00508050, 0.00270979, -0.00663742, 0.00000000, 0.00000000, 0.00000000, 0.58393161, 0.81173232, 0.00321300, -0.01020760
424170332.098079, -0.01716614, 0.00798035, 0.99440002, 0.01422767, -0.00026925, -0.03128096, -170.24867249, 139.10769653, 189.88111877, -0.02026791, 0.00672968, 0.99977195, 0.00310177, 0.00125066, -0.00537191, 0.00000000, 0.00000000, 0.00000000, 0.58396154, 0.81171108, 0.00318692, -0.01019194
424170332.113037, -0.01560974, 0.00427246, 0.99435425, 0.01297279, -0.00252627, -0.01969301, -171.27529907, 139.44990540, 189.21545410, -0.02001811, 0.00669735, 0.99977720, 0.00855876, -0.00129574, -0.00420223, 0.00000000, 0.00000000, 0.00000000, 0.58387171, 0.81177732, 0.00312597, -0.01008144
424170332.130401, -0.02005005, 0.00608826, 0.99565125, 0.01298264, -0.00014168, -0.01150592, -170.24867249, 139.79211426, 190.21394348, -0.01985402, 0.00657065, 0.99978131, 0.00111622, -0.00342734, -0.00742595, 0.00000000, 0.00000000, 0.00000000, 0.58382354, 0.81181323, 0.00312889, -0.00997802
424170332.145853, -0.02005005, 0.00608826, 0.99565125, 0.01532729, -0.00374174, -0.02550802, -170.93309021, 140.81874084, 190.21394348, -0.01987868, 0.00650802, 0.99978119, -0.00017137, -0.00041976, -0.00412997, 0.00000000, 0.00000000, 0.00000000, 0.58383531, 0.81180475, 0.00316166, -0.00996970
424170332.160937, -0.01562500, 0.00502014, 0.99235535, 0.02245205, 0.00330898, -0.01134959, -171.27529907, 140.13432312, 189.88111877, -0.01968073, 0.00647260, 0.99978536, 0.00405573, -0.00145246, -0.00743002, 0.00000000, 0.00000000, 0.00000000, 0.58376494, 0.81185662, 0.00311738, -0.00987926
424170332.177391, -0.01670837, 0.00968933, 0.99639893, 0.00945103, -0.00252148, -0.02205737, -170.41978455, 139.96322632, 189.04902649, -0.01961108, 0.00661819, 0.99978578, 0.00290270, 0.00307114, -0.00338685, 0.00000000, 0.00000000, 0.00000000, 0.58374491, 0.81187115, 0.00303770, -0.00989356
424170332.192720, -0.01538086, 0.00549316, 0.99635315, 0.00828509, -0.00133344, -0.01972204, -170.41978455, 139.96322632, 189.04902649, -0.01954758, 0.00665403, 0.99978679, 0.00164902, 0.00135683, -0.00839274, 0.00000000, 0.00000000, 0.00000000, 0.58369692, 0.81190596, 0.00300403, -0.00987842
424170332.208320, -0.01641846, 0.00698853, 0.99511719, 0.01302126, 0.00098963, -0.01730629, -169.56427002, 137.73886108, 189.54827881, -0.01945334, 0.00649721, 0.99978966, 0.00332480, -0.00048524, -0.00342125, 0.00000000, 0.00000000, 0.00000000, 0.58366725, 0.81192818, 0.00303983, -0.00979449
424170332.224193, -0.01641846, 0.00698853, 0.99511719, 0.01419997, 0.00338221, -0.00677908, -168.36653137, 138.59439087, 190.04753113, -0.01938073, 0.00645179, 0.99979138, 0.00296228, 0.00053674, -0.00467417, 0.00000000, 0.00000000, 0.00000000, 0.58361448, 0.81196664, 0.00303644, -0.00975195
424170332.240107, -0.01835632, 0.00679016, 0.99137878, 0.01064892, -0.00376624, -0.03370470, -168.36653137, 137.90997314, 189.71469116, -0.01935441, 0.00631163, 0.99979275, 0.00099809, 0.00047853, -0.00841398, 0.00000000, 0.00000000, 0.00000000, 0.58365427, 0.81193846, 0.00308613, -0.00970021
424170332.256047, -0.01638794, 0.00601196, 0.99436951, 0.00717189, -0.00023835, -0.03251773, -168.02432251, 137.90997314, 187.05203247, -0.01919296, 0.00635387, 0.99979562, 0.00280502, -0.00034190, -0.00542610, 0.00000000, 0.00000000, 0.00000000, 0.58359883, 0.81197919, 0.00302120, -0.00964718
424170332.271506, -0.01916504, 0.00949097, 0.99440002, 0.00829841, -0.00255823, -0.02905349, -167.68211365, 137.22555542, 190.38035583, -0.01910512, 0.00635983, 0.99979722, 0.00386159, 0.00307010, -0.00864735, 0.00000000, 0.00000000, 0.00000000, 0.58353382, 0.81202642, 0.00299237, -0.00961349
424170332.288356, -0.01632690, 0.00404358, 0.99310303, 0.00601715, 0.00573245, -0.01148062, -168.70874023, 138.59439087, 190.38035583, -0.01908744, 0.00635081, 0.99979764, 0.00268425, 0.00037832, -0.00643522, 0.00000000, 0.00000000, 0.00000000, 0.58350131, 0.81204990, 0.00299049, -0.00960380
424170332.303317, -0.01632690, 0.00404358, 0.99310303, 0.01182470, 0.00103171, -0.01149846, -168.70874023, 138.59439087, 190.38035583, -0.01907729, 0.00618821, 0.99979883, 0.00148391, -0.00112229, -0.00817594, 0.00000000, 0.00000000, 0.00000000, 0.58349112, 0.81205760, 0.00305343, -0.00955227
424170332.318947, -0.01484680, 0.00328064, 0.99359131, 0.01531238, -0.00491646, -0.02669153, -169.56427002, 138.42327881, 191.21244812, -0.01902209, 0.00612865, 0.99980026, 0.00417529, -0.00284801, -0.00620897, 0.00000000, 0.00000000, 0.00000000, 0.58348318, 0.81206374, 0.00306141, -0.00951251
424170332.334967, -0.01666260, 0.00747681, 0.99311829, 0.01530093, -0.00129296, -0.00684539, -170.24867249, 139.10769653, 190.21394348, -0.01887668, 0.00625226, 0.99980229, 0.00221409, 0.00122455, -0.00668398, 0.00000000, 0.00000000, 0.00000000, 0.58343758, 0.81209712, 0.00296826, -0.00948969
424170332.351200, -0.01937866, 0.00778198, 0.99440002, 0.00834555, 0.00216116, -0.02082725, -169.90646362, 138.08106995, 191.87811279, -0.01879282, 0.00624074, 0.99980390, 0.00312204, 0.00022898, -0.00543442, 0.00000000, 0.00000000, 0.00000000, 0.58345437, 0.81208556, 0.00294866, -0.00945221
424170332.366197, -0.01858521, 0.00579834, 0.99436951, 0.01640161, -0.00957060, -0.02326671, -171.78862000, 140.64764404, 190.71319580, -0.01870990, 0.00627030, 0.99980527, 0.00226092, 0.00193893, -0.00766357, 0.00000000, 0.00000000, 0.00000000, 0.58340634, 0.81212049, 0.00291190, -0.00942733
424170332.382003, -0.01858521, 0.00579834, 0.99436951, 0.00839428, 0.00567706, -0.01844026, -170.41978455, 138.93659973, 190.04753113, -0.01856112, 0.00622987, 0.99980831, 0.00395846, -0.00272035, -0.00572873, 0.00000000, 0.00000000, 0.00000000, 0.58338041, 0.81214005, 0.00288461, -0.00935520
424170332.397985, -0.01712036, 0.00602722, 0.99389648, 0.00839029, 0.00568398, -0.01727619, -170.41978455, 138.93659973, 190.04753113, -0.01852459, 0.00616439, 0.99980938, 0.00140423, -0.00013717, -0.00591292, 0.00000000, 0.00000000, 0.00000000, 0.58331994, 0.81218381, 0.00289985, -0.00932148
424170332.413477, -0.01759338, 0.00505066, 0.99311829, 0.00483870, 0.00334014, -0.02200783, -170.76199341, 140.64764404, 191.04602051, -0.01851693, 0.00613602, 0.99980974, 0.00092355, -0.00108536, -0.00669143, 0.00000000, 0.00000000, 0.00000000, 0.58332189, 0.81218251, 0.00290916, -0.00931009
424170332.430547, -0.01806641, 0.00508118, 0.99113464, 0.01414405, -0.00492445, -0.02903192, -171.44641113, 142.01647949, 190.04753113, -0.01843936, 0.00599536, 0.99981201, 0.00353153, 0.00019970, -0.00120055, 0.00000000, 0.00000000, 0.00000000, 0.58327159, 0.81221934, 0.00294308, -0.00923773
424170332.446140, -0.01692200, 0.00775146, 0.99214172, 0.00476173, -0.00372736, -0.03260135, -170.07757568, 139.62101746, 190.71319580, -0.01836325, 0.00605040, 0.99981308, 0.00163962, 0.00315065, -0.00667953, 0.00000000, 0.00000000, 0.00000000, 0.58321358, 0.81226132, 0.00289787, -0.00922308
424170332.461218, -0.01692200, 0.00775146, 0.99214172, 0.01297572, -0.00133025, -0.01501730, -168.87985229, 139.10769653, 189.88111877, -0.01826122, 0.00600572, 0.99981523, 0.00237682, 0.00002150, -0.00744461, 0.00000000, 0.00000000, 0.00000000, 0.58312086, 0.81232854, 0.00288521, -0.00916893
424170332.477395, -0.01812744, 0.00703430, 0.99288940, 0.01177463, -0.00488317, -0.02440015, -168.02432251, 138.59439087, 189.38186646, -0.01827922, 0.00597145, 0.99981511, 0.00015177, 0.00106285, -0.00692568, 0.00000000, 0.00000000, 0.00000000, 0.58310036, 0.81234323, 0.00290414, -0.00916632
424170332.493474, -0.01710510, 0.00552368, 0.99388123, 0.01056689, -0.00602221, -0.02094044, -169.22206116, 137.05444336, 189.54827881, -0.01818257, 0.00589672, 0.99981731, 0.00107746, -0.00037304, -0.00593607, 0.00000000, 0.00000000, 0.00000000, 0.58305982, 0.81237300, 0.00290586, -0.00910542
424170332.508644, -0.01855469, 0.00433350, 0.99336243, 0.00947286, -0.00015819, -0.01736221, -169.22206116, 137.05444336, 189.54827881, -0.01814230, 0.00584940, 0.99981833, 0.00094565, 0.00286337, -0.00517414, 0.00000000, 0.00000000, 0.00000000, 0.58302181, 0.81240059, 0.00291292, -0.00907540
424170332.523712, -0.01522827, 0.00868225, 0.99263000, 0.01063400, -0.00494096, -0.03488821, -167.33990479, 137.22555542, 190.04753113, -0.01811676, 0.00579762, 0.99981904, 0.00066070, 0.00413585, -0.00390842, 0.00000000, 0.00000000, 0.00000000, 0.58299369, 0.81242101, 0.00292619, -0.00905002
424170332.540665, -0.01522827, 0.00868225, 0.99263000, 0.01426868, 0.00686270, -0.01021162, -167.68211365, 138.59439087, 190.04753113, -0.01804018, 0.00584385, 0.99982017, -0.00179624, 0.00122097, -0.00616784, 0.00000000, 0.00000000, 0.00000000, 0.58289076, 0.81249520, 0.00288394, -0.00903276
424170332.556434, -0.01670837, 0.00872803, 0.99214172, 0.01290275, -0.00840520, -0.02677516, -167.85322571, 138.42327881, 192.87660217, -0.01803727, 0.00590322, 0.99981987, 0.00132890, 0.00282481, -0.00767816, 0.00000000, 0.00000000, 0.00000000, 0.58286541, 0.81251330, 0.00285869, -0.00904897
424170332.571797, -0.01785278, 0.00604248, 0.99337769, 0.00825314, -0.00127645, -0.01041030, -168.36653137, 138.25218201, 190.04753113, -0.01800691, 0.00586581, 0.99982065, 0.00015413, 0.00017667, -0.00644297, 0.00000000, 0.00000000, 0.00000000, 0.58285976, 0.81251758, 0.00286497, -0.00902575
424170332.588495, -0.01976013, 0.00436401, 0.99263000, 0.02236176, -0.00253426, -0.01261167, -168.19543457, 140.13432312, 191.21244812, -0.01805610, 0.00576566, 0.99982035, -0.00049859, -0.00117277, -0.00868571, 0.00000000, 0.00000000, 0.00000000, 0.58282424, 0.81254297, 0.00291960, -0.00901667
424170332.603397, -0.01420593, 0.00718689, 0.99211121, 0.00602221, 0.00452285, -0.01848420, -168.19543457, 140.13432312, 191.21244812, -0.01799384, 0.00575566, 0.99982154, 0.00159064, 0.00072933, -0.00645910, 0.00000000, 0.00000000, 0.00000000, 0.58280812, 0.81255490, 0.00290534, -0.00898852
424170332.619626, -0.01466370, 0.00572205, 0.99409485, 0.00718255, 0.00094276, -0.03017042, -170.07757568, 139.27880859, 191.71170044, -0.01792098, 0.00573439, 0.99982297, 0.00517989, 0.00140672, -0.00572811, 0.00000000, 0.00000000, 0.00000000, 0.58280353, 0.81255863, 0.00289270, -0.00895273
424170332.634962, -0.01466370, 0.00572205, 0.99409485, 0.00825420, -0.00247967, -0.01624981, -170.93309021, 139.10769653, 192.21093750, -0.01785384, 0.00567833, 0.99982446, 0.00319014, 0.00004371, -0.00572963, 0.00000000, 0.00000000, 0.00000000, 0.58272570, 0.81261491, 0.00289505, -0.00890938
424170332.651497, -0.01632690, 0.00355530, 0.99034119, 0.01649429, -0.00613273, -0.03368340, -170.76199341, 140.64764404, 193.04302979, -0.01775142, 0.00561223, 0.99982667, 0.00142452, -0.00205694, -0.00948549, 0.00000000, 0.00000000, 0.00000000, 0.58268751, 0.81264297, 0.00289164, -0.00884864
424170332.666701, -0.01710510, 0.00625610, 0.99612427, 0.01422235, 0.00094036, -0.02427764, -170.93309021, 139.10769653, 192.21093750, -0.01765500, 0.00567885, 0.99982804, 0.00054990, 0.00057725, -0.00370374, 0.00000000, 0.00000000, 0.00000000, 0.58262155, 0.81269067, 0.00283576, -0.00882910
424170332.681774, -0.01927185, 0.00410461, 0.99536133, 0.01172723, -0.00960203, -0.03262665, -170.76199341, 139.96322632, 193.04302979, -0.01757522, 0.00566526, 0.99982947, 0.00291152, 0.00005678, -0.00697061, 0.00000000, 0.00000000, 0.00000000, 0.58250870, 0.81277203, 0.00281681, -0.00879310
424170332.698825, -0.01589966, 0.00648499, 0.99336243, 0.00947686, -0.00016512, -0.01852628, -171.10420227, 138.59439087, 192.04452515, -0.01746625, 0.00566195, 0.99983144, 0.00205487, 0.00035001, -0.00796436, 0.00000000, 0.00000000, 0.00000000, 0.58243507, 0.81282538, 0.00278562, -0.00874810
424170332.713707, -0.01589966, 0.00648499, 0.99336243, 0.01532889, -0.00134303, -0.01499280, -171.10420227, 138.59439087, 192.04452515, -0.01740469, 0.00567541, 0.99983239, 0.00150503, 0.00080958, -0.00646999, 0.00000000, 0.00000000, 0.00000000, 0.58237194, 0.81287092, 0.00276155, -0.00872721
424170332.729952, -0.01679993, 0.00332642, 0.99458313, 0.01302312, 0.00338861, -0.00679133, -170.07757568, 139.62101746, 192.37736511, -0.01740301, 0.00570385, 0.99983227, 0.00060309, -0.00237744, -0.00524916, 0.00000000, 0.00000000, 0.00000000, 0.58237619, 0.81286783, 0.00274954, -0.00873480
424170332.747035, -0.01510620, 0.00427246, 0.99459839, 0.01424791, 0.00329646, -0.02074656, -169.56427002, 138.42327881, 190.54678345, -0.01734623, 0.00566014, 0.99983352, 0.00224002, -0.00138768, -0.00523513, 0.00000000, 0.00000000, 0.00000000, 0.58235064, 0.81288652, 0.00275050, -0.00869907
424170332.761480, -0.01493835, 0.00645447, 0.99461365, 0.01882216, -0.00489968, -0.02083551, -168.87985229, 139.44990540, 190.54678345, -0.01730330, 0.00564029, 0.99983436, 0.00219710, -0.00087954, -0.00523599, 0.00000000, 0.00000000, 0.00000000, 0.58232253, 0.81290692, 0.00274577, -0.00867594
424170332.777965, -0.01614380, 0.00624084, 0.99536133, 0.01309583, 0.00686190, -0.01138794, -168.70874023, 137.22555542, 191.37886047, -0.01715046, 0.00574158, 0.99983644, 0.00343281, 0.00068237, -0.00523805, 0.00000000, 0.00000000, 0.00000000, 0.58229446, 0.81292766, 0.00265978, -0.00864339
424170332.793003, -0.01614380, 0.00624084, 0.99536133, 0.01648390, -0.00371245, -0.01967623, -167.33990479, 137.90997314, 192.04452515, -0.01716582, 0.00570184, 0.99983639, 0.00102203, 0.00053900, -0.00447507, 0.00000000, 0.00000000, 0.00000000, 0.58225656, 0.81295479, 0.00268001, -0.00863819
424170332.808765, -0.01574707, 0.00965881, 0.99314880, 0.01762267, -0.00605337, -0.01970340, -167.33990479, 137.90997314, 192.04452515, -0.01711529, 0.00574958, 0.99983698, 0.00136822, 0.00390923, -0.00668819, 0.00000000, 0.00000000, 0.00000000, 0.58224122, 0.81296596, 0.00264572, -0.00863160
424170332.824986, -0.01686096, 0.00553894, 0.99134827, 0.00950243, 0.00219072, -0.01499493, -168.19543457, 138.08106995, 191.21244812, -0.01702532, 0.00581518, 0.99983817, 0.00016436, -0.00027624, -0.00848988, 0.00000000, 0.00000000, 0.00000000, 0.58222039, 0.81298124, 0.00259264, -0.00861419
424170332.840320, -0.01638794, 0.00624084, 0.99436951, 0.01527856, -0.00725818, -0.02789501, -167.68211365, 138.59439087, 191.37886047, -0.01703873, 0.00577122, 0.99983817, 0.00040665, 0.00025600, -0.00595695, 0.00000000, 0.00000000, 0.00000000, 0.58219732, 0.81299777, 0.00261417, -0.00860692
424170332.857021, -0.01516724, 0.00744629, 0.99636841, 0.00833223, -0.00021625, -0.02785001, -168.87985229, 138.08106995, 191.87811279, -0.01695359, 0.00583196, 0.99983925, -0.00091446, 0.00092769, -0.00694986, 0.00000000, 0.00000000, 0.00000000, 0.58213875, 0.81304004, 0.00256407, -0.00859017
424170332.871958, -0.01516724, 0.00744629, 0.99636841, 0.01413473, -0.00370685, -0.02086454, -169.56427002, 138.42327881, 192.87660217, -0.01688170, 0.00582135, 0.99984056, 0.00171447, 0.00162494, -0.00347214, 0.00000000, 0.00000000, 0.00000000, 0.58207811, 0.81308385, 0.00254682, -0.00855804
424170332.888393, -0.01670837, 0.00894165, 0.99337769, 0.01415364, -0.00253986, -0.02084483, -170.24867249, 140.47653198, 192.54377747, -0.01687809, 0.00590030, 0.99984014, 0.00016972, 0.00304135, -0.00646246, 0.00000000, 0.00000000, 0.00000000, 0.58202247, 0.81312355, 0.00251308, -0.00857973
424170332.903593, -0.01756287, 0.00408936, 0.99237061, 0.01181112, -0.00134516, -0.01852149, -170.24867249, 140.47653198, 192.54377747, -0.01682563, 0.00591477, 0.99984092, -0.00073724, -0.00182542, -0.00747034, 0.00000000, 0.00000000, 0.00000000, 0.58198387, 0.81315143, 0.00249152, -0.00856272
424170332.919620, -0.01666260, 0.00723267, 0.99287415, 0.01060204, -0.00488370, -0.02557647, -169.90646362, 138.42327881, 193.54226685, -0.01686825, 0.00583777, 0.99984068, -0.00096928, -0.00029883, -0.00595945, 0.00000000, 0.00000000, 0.00000000, 0.58198565, 0.81315007, 0.00253525, -0.00855764
424170332.935156, -0.01466370, 0.00547791, 0.99285889, 0.01064093, -0.00375186, -0.03137657, -170.24867249, 140.47653198, 192.21093750, -0.01677864, 0.00585507, 0.99984211, 0.00090950, -0.00034665, -0.00698320, 0.00000000, 0.00000000, 0.00000000, 0.58192724, 0.81319231, 0.00250152, -0.00852642
424170332.951745, -0.01466370, 0.00547791, 0.99285889, 0.00938205, -0.00960363, -0.03497929, -170.76199341, 139.96322632, 192.71018982, -0.01673799, 0.00581973, 0.99984300, -0.00018401, 0.00191648, -0.00721297, 0.00000000, 0.00000000, 0.00000000, 0.58185678, 0.81324300, 0.00250333, -0.00849982
424170332.966784, -0.01618958, 0.00772095, 0.99263000, 0.01885198, -0.00255078, -0.01846822, -172.30192566, 140.13432312, 191.87811279, -0.01669405, 0.00576452, 0.99984401, 0.00050447, 0.00195642, -0.00721402, 0.00000000, 0.00000000, 0.00000000, 0.58178112, 0.81329745, 0.00251220, -0.00846612
424170332.982204, -0.01988220, 0.00900269, 0.99316406, 0.00603313, 0.00570396, -0.01613636, -170.93309021, 139.10769653, 191.87811279, -0.01668566, 0.00582900, 0.99984378, -0.00319654, 0.00317369, -0.00667973, 0.00000000, 0.00000000, 0.00000000, 0.58172778, 0.81333553, 0.00248298, -0.00848163
424170332.998420, -0.01715088, 0.00701904, 0.99114990, 0.00826619, -0.00250097, -0.01974175, -170.59088135, 138.08106995, 189.88111877, -0.01671043, 0.00580315, 0.99984354, 0.00010887, -0.00050835, -0.00597756, 0.00000000, 0.00000000, 0.00000000, 0.58170468, 0.81335197, 0.00250046, -0.00848425
424170333.013984, -0.01727295, 0.00262451, 0.99011230, 0.01527216, -0.00484509, -0.01505192, -170.59088135, 138.08106995, 189.88111877, -0.01674674, 0.00577135, 0.99984312, -0.00186899, 0.00126295, -0.00420712, 0.00000000, 0.00000000, 0.00000000, 0.58165147, 0.81338990, 0.00252340, -0.00848994
424170333.030082, -0.01727295, 0.00262451, 0.99011230, 0.01645700, -0.00486586, -0.01736807, -168.53764343, 138.42327881, 191.54527283, -0.01669627, 0.00572286, 0.99984425, -0.00065297, 0.00054850, -0.00396410, 0.00000000, 0.00000000, 0.00000000, 0.58162516, 0.81340906, 0.00252817, -0.00845539
424170333.046267, -0.01739502, 0.00701904, 0.99462891, 0.00948219, -0.00137526, -0.02552959, -167.51101685, 138.08106995, 190.21394348, -0.01664773, 0.00572627, 0.99984503, -0.00074729, 0.00129278, -0.00521611, 0.00000000, 0.00000000, 0.00000000, 0.58159413, 0.81343149, 0.00251234, -0.00843673
424170333.061888, -0.01812744, 0.00752258, 0.99214172, 0.01411316, -0.00606988, -0.02555969, -168.53764343, 137.73886108, 189.54827881, -0.01666453, 0.00567474, 0.99984503, -0.00146291, 0.00184784, -0.00770331, 0.00000000, 0.00000000, 0.00000000, 0.58155602, 0.81345873, 0.00253779, -0.00842870
424170333.078371, -0.01734924, 0.00578308, 0.99311829, 0.01532889, -0.00134303, -0.01499280, -168.70874023, 137.56776428, 189.38186646, -0.01659978, 0.00567569, 0.99984610, -0.00050532, 0.00009214, -0.00648368, 0.00000000, 0.00000000, 0.00000000, 0.58149247, 0.81350449, 0.00251792, -0.00840283
424170333.093140, -0.01487732, 0.00476074, 0.99211121, 0.01063294, -0.00373775, -0.02904870, -168.87985229, 138.08106995, 189.54827881, -0.01656352, 0.00567025, 0.99984676, 0.00090801, 0.00057059, -0.00747613, 0.00000000, 0.00000000, 0.00000000, 0.58145661, 0.81353032, 0.00250922, -0.00838661
424170333.110859, -0.01577759, 0.00233459, 0.99284363, 0.01645407, -0.00606135, -0.02204352, -167.51101685, 138.08106995, 190.87960815, -0.01654170, 0.00565678, 0.99984717, -0.00276067, -0.00008733, -0.00422645, 0.00000000, 0.00000000, 0.00000000, 0.58141825, 0.81355787, 0.00250795, -0.00837393
424170333.124868, -0.01577759, 0.00233459, 0.99284363, 0.01059965, -0.00247781, -0.01389744, -167.51101685, 138.08106995, 190.87960815, -0.01651243, 0.00559416, 0.99984801, 0.00073484, -0.00325957, -0.00700438, 0.00000000, 0.00000000, 0.00000000, 0.58138013, 0.81358537, 0.00252452, -0.00834394
424170333.140584, -0.01690674, 0.00747681, 0.99511719, 0.01417148, -0.00016938, -0.01498534, -168.87985229, 139.79211426, 190.54678345, -0.01643222, 0.00562605, 0.99984914, -0.00047452, 0.00185076, -0.00473197, 0.00000000, 0.00000000, 0.00000000, 0.58132712, 0.81362360, 0.00248769, -0.00832073
424170333.156334, -0.01817322, 0.00874329, 0.99514771, 0.01176931, -0.00367277, -0.01739683, -169.39315796, 139.62101746, 192.04452515, -0.01636670, 0.00565895, 0.99985003, 0.00216077, 0.00175682, -0.00575519, 0.00000000, 0.00000000, 0.00000000, 0.58127925, 0.81365807, 0.00245477, -0.00830379
424170333.172120, -0.01690674, 0.00700378, 0.99461365, 0.01181245, -0.00254865, -0.02436073, -170.24867249, 139.44990540, 191.54527283, -0.01635066, 0.00569004, 0.99985015, -0.00005254, 0.00079494, -0.00448880, 0.00000000, 0.00000000, 0.00000000, 0.58126105, 0.81367110, 0.00243727, -0.00830635
424170333.188144, -0.01690674, 0.00700378, 0.99461365, 0.00702915, -0.00598892, -0.01864905, -172.13082886, 140.30543518, 190.71319580, -0.01628675, 0.00567184, 0.99985129, 0.00090589, -0.00039229, -0.00774007, 0.00000000, 0.00000000, 0.00000000, 0.58122533, 0.81369697, 0.00242574, -0.00827516
424170333.203722, -0.01686096, 0.00552368, 0.99259949, 0.01291207, -0.00602061, -0.01858833, -171.44641113, 140.98985291, 190.38035583, -0.01624966, 0.00563040, 0.99985212, -0.00061130, -0.00010672, -0.00725263, 0.00000000, 0.00000000, 0.00000000, 0.58120205, 0.81371385, 0.00243158, -0.00824810
424170333.222409, -0.01434326, 0.00276184, 0.99383545, 0.00827551, -0.00371804, -0.02790913, -168.70874023, 141.67427063, 190.71319580, -0.01619659, 0.00552792, 0.99985355, 0.00185333, -0.00276608, -0.00601810, 0.00000000, 0.00000000, 0.00000000, 0.58118624, 0.81372558, 0.00245769, -0.00819677
424170333.235375, -0.01641846, 0.00746155, 0.99362183, 0.01170326, -0.00955915, -0.02564305, -168.70874023, 141.67427063, 190.71319580, -0.01615328, 0.00551562, 0.99985433, -0.00024992, 0.00098462, -0.00823139, 0.00000000, 0.00000000, 0.00000000, 0.58111314, 0.81377803, 0.00244937, -0.00817579
424170333.252421, -0.01446533, 0.00741577, 0.99485779, 0.00714899, -0.00139843, -0.03137364, -169.05094910, 139.27880859, 190.71319580, -0.01609995, 0.00554156, 0.99985504, -0.00155447, 0.00170637, -0.00647735, 0.00000000, 0.00000000, 0.00000000, 0.58103984, 0.81383058, 0.00242259, -0.00816184
424170333.267386, -0.01446533, 0.00741577, 0.99485779, 0.00590103, -0.00246689, -0.01627404, -170.07757568, 138.25218201, 190.38035583, -0.01613867, 0.00553864, 0.99985445, -0.00372828, 0.00299102, -0.00569854, 0.00000000, 0.00000000, 0.00000000, 0.58096954, 0.81388058, 0.00243432, -0.00817696
424170333.282415, -0.01397705, 0.00717163, 0.99534607, 0.01187850, 0.00333774, -0.01611479, -169.05094910, 138.59439087, 192.04452515, -0.01614765, 0.00544247, 0.99985480, 0.00217060, 0.00172917, -0.00450874, 0.00000000, 0.00000000, 0.00000000, 0.58096695, 0.81388255, 0.00247604, -0.00815268
424170333.298558, -0.01718140, 0.00846863, 0.99464417, 0.00607653, 0.01043027, -0.00674605, -169.22206116, 138.42327881, 191.21244812, -0.01621861, 0.00552377, 0.99985319, -0.00096279, 0.00294486, -0.00520905, 0.00000000, 0.00000000, 0.00000000, 0.58096159, 0.81388589, 0.00246352, -0.00820520
424170333.314316, -0.01805115, 0.00457764, 0.99388123, 0.01186891, 0.00095315, -0.02430188, -169.05094910, 138.59439087, 190.38035583, -0.01639429, 0.00533017, 0.99985141, -0.00165686, -0.00075253, -0.00597017, 0.00000000, 0.00000000, 0.00000000, 0.58096146, 0.81388542, 0.00259334, -0.00822046
424170333.331048, -0.01641846, 0.00698853, 0.99536133, 0.01409691, -0.00604138, -0.02090395, -169.05094910, 138.59439087, 190.38035583, -0.01644398, 0.00531241, 0.99985069, -0.00432323, -0.00017020, -0.00847189, 0.00000000, 0.00000000, 0.00000000, 0.58091066, 0.81392146, 0.00261449, -0.00823569
424170333.346748, -0.01730347, 0.00431824, 0.99610901, 0.01761361, -0.00483657, -0.01153601, -167.33990479, 138.59439087, 189.04902649, -0.01641803, 0.00531011, 0.99985111, 0.00131183, -0.00103765, -0.00549687, 0.00000000, 0.00000000, 0.00000000, 0.58091769, 0.81391658, 0.00260796, -0.00822443
424170333.362180, -0.01730347, 0.00431824, 0.99610901, 0.01176238, -0.00486160, -0.02090848, -168.02432251, 138.93659973, 189.04902649, -0.01634850, 0.00529102, 0.99985236, -0.00095496, -0.00097278, -0.00374335, 0.00000000, 0.00000000, 0.00000000, 0.58089665, 0.81393198, 0.00259532, -0.00819066
424170333.377816, -0.01611328, 0.00529480, 0.99134827, 0.00479183, 0.00222321, -0.01387986, -168.36653137, 137.90997314, 190.71319580, -0.01625033, 0.00531212, 0.99985385, 0.00013705, -0.00001732, -0.00850558, 0.00000000, 0.00000000, 0.00000000, 0.58083309, 0.81397779, 0.00255758, -0.00815703
424170333.393439, -0.01687622, 0.00602722, 0.99311829, 0.01643277, -0.00842438, -0.02673867, -170.07757568, 138.59439087, 189.71469116, -0.01624707, 0.00524705, 0.99985427, -0.00062915, 0.00078017, -0.00673595, 0.00000000, 0.00000000, 0.00000000, 0.58080012, 0.81400144, 0.00258279, -0.00813690
424170333.409269, -0.01614380, 0.00602722, 0.99237061, 0.00591701, -0.00249538, -0.02093005, -169.56427002, 138.42327881, 190.54678345, -0.01622738, 0.00524114, 0.99985456, -0.00093876, 0.00275447, -0.00745347, 0.00000000, 0.00000000, 0.00000000, 0.58076951, 0.81402338, 0.00257917, -0.00812727
424170333.425755, -0.01814270, 0.00801086, 0.99464417, 0.01294083, -0.00246928, -0.01038127, -169.90646362, 139.10769653, 190.54678345, -0.01624355, 0.00524889, 0.99985427, -0.00261632, 0.00204481, -0.00870438, 0.00000000, 0.00000000, 0.00000000, 0.58072637, 0.81405407, 0.00258028, -0.00813624
424170333.440721, -0.01814270, 0.00801086, 0.99464417, 0.00719613, 0.00332016, -0.02314740, -169.90646362, 139.10769653, 190.54678345, -0.01622743, 0.00526796, 0.99985445, -0.00191527, 0.00274290, -0.00521028, 0.00000000, 0.00000000, 0.00000000, 0.58070812, 0.81406714, 0.00256765, -0.00813527
424170333.456584, -0.01882935, 0.00608826, 0.99163818, 0.01179754, -0.00372257, -0.02554451, -170.93309021, 140.81874084, 190.54678345, -0.01626920, 0.00521431, 0.99985403, -0.00256014, 0.00087394, -0.00821587, 0.00000000, 0.00000000, 0.00000000, 0.58067529, 0.81409044, 0.00260129, -0.00813681
424170333.472351, -0.01487732, 0.00402832, 0.98936462, 0.01412381, -0.00488876, -0.02321211, -169.90646362, 140.13432312, 191.87811279, -0.01628748, 0.00513064, 0.99985421, 0.00141016, -0.00110232, -0.01048956, 0.00000000, 0.00000000, 0.00000000, 0.58064742, 0.81411036, 0.00264038, -0.00812004
424170333.488963, -0.01692200, 0.00773621, 0.99389648, 0.01057914, -0.00604378, -0.02443211, -170.76199341, 139.62101746, 191.37886047, -0.01618538, 0.00513725, 0.99985582, 0.00141488, 0.00401803, -0.00696641, 0.00000000, 0.00000000, 0.00000000, 0.58057683, 0.81416120, 0.00260734, -0.00808062
424170333.504227, -0.01754761, 0.00357056, 0.99485779, 0.01764051, -0.00368315, -0.01384418, -170.24867249, 139.79211426, 191.21244812, -0.01613173, 0.00513189, 0.99985671, 0.00151381, -0.00087469, -0.00425124, 0.00000000, 0.00000000, 0.00000000, 0.58053625, 0.81419041, 0.00259354, -0.00805735
424170333.519863, -0.01754761, 0.00357056, 0.99485779, 0.00833223, -0.00021625, -0.02785001, -170.24867249, 139.79211426, 191.21244812, -0.01614374, 0.00516061, 0.99985635, -0.00140387, -0.00159005, -0.00499858, 0.00000000, 0.00000000, 0.00000000, 0.58052055, 0.81420149, 0.00258518, -0.00807063
424170333.535533, -0.01708984, 0.00503540, 0.99362183, 0.00483071, 0.00335452, -0.01967996, -171.61750793, 141.16094971, 189.88111877, -0.01607855, 0.00517205, 0.99985737, -0.00101129, -0.00013665, -0.00623553, 0.00000000, 0.00000000, 0.00000000, 0.58046517, 0.81424128, 0.00256105, -0.00804758
424170333.551862, -0.01470947, 0.00718689, 0.99261475, 0.01300262, -0.00017737, -0.01732573, -170.59088135, 139.10769653, 191.87811279, -0.01621080, 0.00509128, 0.99985564, 0.00150133, 0.00209561, -0.00724089, 0.00000000, 0.00000000, 0.00000000, 0.58050546, 0.81421203, 0.00263273, -0.00807785
424170333.567206, -0.01739502, 0.00701904, 0.99513245, 0.00942013, -0.00366691, -0.01858540, -170.24867249, 139.44990540, 190.21394348, -0.01625136, 0.00509292, 0.99985498, -0.00158617, 0.00044602, -0.00574486, 0.00000000, 0.00000000, 0.00000000, 0.58051741, 0.81420330, 0.00264396, -0.00809481
424170333.582391, -0.01739502, 0.00701904, 0.99337769, 0.01178422, -0.00249858, -0.01621306, -170.76199341, 138.59439087, 191.04602051, -0.01628858, 0.00501053, 0.99985480, -0.00052660, -0.00119583, -0.00701115, 0.00000000, 0.00000000, 0.00000000, 0.58049438, 0.81421967, 0.00268807, -0.00808612
424170333.598817, -0.01739502, 0.00701904, 0.99337769, 0.01170433, -0.01076183, -0.03148256, -168.70874023, 137.90997314, 189.71469116, -0.01626477, 0.00500064, 0.99985522, -0.00015369, 0.00200314, -0.00772875, 0.00000000, 0.00000000, 0.00000000, 0.58044874, 0.81425234, 0.00268474, -0.00807370
424170333.614399, -0.01809692, 0.00677490, 0.99588013, 0.01298904, -0.00255504, -0.02434875, -168.19543457, 137.73886108, 189.88111877, -0.01623419, 0.00503298, 0.99985558, -0.00186274, 0.00174193, -0.00397542, 0.00000000, 0.00000000, 0.00000000, 0.58041042, 0.81427975, 0.00266231, -0.00807076
424170333.631071, -0.01519775, 0.00794983, 0.99337769, 0.01299010, -0.00375772, -0.03018826, -168.19543457, 137.73886108, 189.88111877, -0.01618284, 0.00501804, 0.99985647, 0.00098508, 0.00293179, -0.00647877, 0.00000000, 0.00000000, 0.00000000, 0.58035801, 0.81431739, 0.00265297, -0.00804569
424170333.646904, -0.01564026, 0.00573730, 0.99334717, 0.00718015, 0.00334893, -0.01849166, -168.02432251, 138.25218201, 189.71469116, -0.01612874, 0.00506558, 0.99985707, 0.00144978, 0.00114474, -0.00498404, 0.00000000, 0.00000000, 0.00000000, 0.58029505, 0.81436245, 0.00261729, -0.00803766
424170333.662137, -0.01855469, 0.00457764, 0.99411011, 0.00831599, -0.00018775, -0.02319427, -168.02432251, 138.25218201, 188.38336182, -0.01623422, 0.00496661, 0.99985588, -0.00207633, 0.00037397, -0.00823296, 0.00000000, 0.00000000, 0.00000000, 0.58025767, 0.81438872, 0.00268784, -0.00805202
424170333.678047, -0.01855469, 0.00457764, 0.99411011, 0.01298770, -0.00135155, -0.01850950, -168.19543457, 137.73886108, 190.54678345, -0.01635036, 0.00488715, 0.99985439, -0.00081578, 0.00284905, -0.00521022, 0.00000000, 0.00000000, 0.00000000, 0.58025028, 0.81439352, 0.00275382, -0.00807629
424170333.693604, -0.01461792, 0.00378418, 0.99234009, 0.01177330, -0.00367969, -0.01856090, -168.87985229, 139.79211426, 189.54827881, -0.01625688, 0.00489401, 0.99985588, 0.00163896, -0.00110983, -0.00751578, 0.00000000, 0.00000000, 0.00000000, 0.58021487, 0.81441920, 0.00272355, -0.00804033
424170333.709816, -0.01681519, 0.00382996, 0.99234009, 0.01646499, -0.00487998, -0.01969594, -169.22206116, 139.79211426, 190.21394348, -0.01620206, 0.00488666, 0.99985677, -0.00061313, -0.00105670, -0.00751671, 0.00000000, 0.00000000, 0.00000000, 0.58019468, 0.81443387, 0.00271044, -0.00801593
424170333.725291, -0.01614380, 0.00624084, 0.99411011, 0.00709386, -0.00250177, -0.02091780, -169.22206116, 139.79211426, 190.21394348, -0.01611000, 0.00495564, 0.99985796, 0.00262124, 0.00294841, -0.00597672, 0.00000000, 0.00000000, 0.00000000, 0.58017708, 0.81444676, 0.00265546, -0.00799851
424170333.740914, -0.01885986, 0.00656128, 0.98988342, 0.01429665, 0.00681290, -0.01835957, -171.61750793, 139.10769653, 190.54678345, -0.01611723, 0.00496860, 0.99985778, -0.00202547, 0.00279812, -0.00670896, 0.00000000, 0.00000000, 0.00000000, 0.58015434, 0.81446291, 0.00265206, -0.00800529
424170333.756777, -0.01885986, 0.00656128, 0.98988342, 0.01404338, -0.00834741, -0.01628736, -171.44641113, 140.64764404, 191.37886047, -0.01621491, 0.00509537, 0.99985552, -0.00291961, 0.00341903, -0.00620320, 0.00000000, 0.00000000, 0.00000000, 0.58008419, 0.81451219, 0.00262807, -0.00808208
424170333.772821, -0.01641846, 0.00698853, 0.99311829, 0.01529746, -0.00609065, -0.02787531, -170.41978455, 140.98985291, 190.38035583, -0.01621985, 0.00511099, 0.99985540, -0.00019861, 0.00187754, -0.00673710, 0.00000000, 0.00000000, 0.00000000, 0.58011906, 0.81448730, 0.00262349, -0.00808851
424170333.788528, -0.01876831, 0.00410461, 0.99261475, 0.01532889, -0.00134303, -0.01499280, -170.76199341, 138.93659973, 191.71170044, -0.01616662, 0.00509833, 0.99985629, -0.00260169, -0.00099371, -0.00724157, 0.00000000, 0.00000000, 0.00000000, 0.58003580, 0.81454689, 0.00261238, -0.00806342
424170333.804158, -0.01901245, 0.00386047, 0.99360657, 0.01420770, -0.00023356, -0.02546115, -169.90646362, 139.79211426, 191.54527283, -0.01616220, 0.00513171, 0.99985623, 0.00108651, -0.00110339, -0.00376246, 0.00000000, 0.00000000, 0.00000000, 0.58001577, 0.81456112, 0.00259730, -0.00807137
424170333.820561, -0.01785278, 0.00627136, 0.99288940, 0.01177037, -0.00487598, -0.02323635, -169.56427002, 140.47653198, 190.54678345, -0.01618267, 0.00511354, 0.99985600, -0.00046466, 0.00163084, -0.00498293, 0.00000000, 0.00000000, 0.00000000, 0.57993554, 0.81461817, 0.00260985, -0.00807469
424170333.836260, -0.01785278, 0.00627136, 0.99288940, 0.00710185, -0.00251615, -0.02324567, -169.56427002, 140.47653198, 190.54678345, -0.01617567, 0.00517128, 0.99985582, -0.00219591, 0.00235131, -0.00847701, 0.00000000, 0.00000000, 0.00000000, 0.57984780, 0.81468057, 0.00258343, -0.00808886
424170333.851738, -0.01754761, 0.00357056, 0.99259949, 0.01887089, -0.00138325, -0.01844852, -170.24867249, 139.44990540, 191.54527283, -0.01619367, 0.00510943, 0.99985582, -0.00135394, -0.00153887, -0.00725633, 0.00000000, 0.00000000, 0.00000000, 0.57980031, 0.81471437, 0.00261337, -0.00807841
424170333.867173, -0.01470947, 0.00671387, 0.99061584, 0.01174747, -0.00603579, -0.02209199, -169.56427002, 137.73886108, 190.21394348, -0.01622279, 0.00516882, 0.99985504, 0.00151332, 0.00154504, -0.00923920, 0.00000000, 0.00000000, 0.00000000, 0.57979840, 0.81471550, 0.00259760, -0.00810751
424170333.883594, -0.01712036, 0.00604248, 0.99137878, 0.01062761, -0.00252787, -0.02204511, -168.02432251, 137.56776428, 190.38035583, -0.01615874, 0.00512206, 0.99985629, -0.00091585, -0.00055968, -0.00748571, 0.00000000, 0.00000000, 0.00000000, 0.57973059, 0.81476414, 0.00259741, -0.00806807
424170333.899011, -0.01588440, 0.00601196, 0.99411011, 0.01414804, -0.00493164, -0.03019572, -167.68211365, 137.90997314, 190.04753113, -0.01612705, 0.00516980, 0.99985659, -0.00029141, 0.00229175, -0.00724184, 0.00000000, 0.00000000, 0.00000000, 0.57966555, 0.81481050, 0.00256813, -0.00806920
424170333.914476, -0.01588440, 0.00601196, 0.99411011, 0.00604511, 0.00568265, -0.01962830, -168.53764343, 135.68562317, 189.88111877, -0.01611944, 0.00518353, 0.99985665, -0.00148921, 0.00059955, -0.00597541, 0.00000000, 0.00000000, 0.00000000, 0.57964053, 0.81482831, 0.00256008, -0.00807016
424170333.930664, -0.01547241, 0.00817871, 0.99313354, 0.01069898, 0.00214864, -0.02080275, -168.53764343, 135.68562317, 189.88111877, -0.01612295, 0.00521565, 0.99985641, 0.00065054, 0.00296306, -0.00672287, 0.00000000, 0.00000000, 0.00000000, 0.57959094, 0.81486352, 0.00254752, -0.00808106
424170333.946653, -0.01887512, 0.00753784, 0.99063110, 0.01649722, -0.00493723, -0.02900768, -168.87985229, 138.42327881, 188.88261414, -0.01611793, 0.00526258, 0.99985623, -0.00275720, 0.00227527, -0.00922514, 0.00000000, 0.00000000, 0.00000000, 0.57955614, 0.81488822, 0.00252660, -0.00809272
424170333.962490, -0.01667786, 0.00798035, 0.99337769, 0.00482671, 0.00336171, -0.01851616, -169.73536682, 137.56776428, 190.71319580, -0.01615666, 0.00531701, 0.99985534, -0.00052119, 0.00266334, -0.00647765, 0.00000000, 0.00000000, 0.00000000, 0.57950823, 0.81492200, 0.00251517, -0.00812442
424170333.979309, -0.01560974, 0.00451660, 0.99259949, 0.02238174, -0.00256995, -0.01843174, -168.70874023, 139.62101746, 190.71319580, -0.01614339, 0.00520215, 0.99985617, 0.00051839, -0.00019727, -0.00475423, 0.00000000, 0.00000000, 0.00000000, 0.57945838, 0.81495771, 0.00255763, -0.00808589
424170333.994243, -0.01609802, 0.00502014, 0.99609375, 0.00836685, 0.00092225, -0.03248630, -170.93309021, 139.79211426, 190.21394348, -0.01611025, 0.00526479, 0.99985635, 0.00043948, 0.00120494, -0.00724161, 0.00000000, 0.00000000, 0.00000000, 0.57943127, 0.81497705, 0.00252223, -0.00809062
424170334.009937, -0.01609802, 0.00502014, 0.99609375, 0.01180553, -0.00373695, -0.02787238, -170.07757568, 139.27880859, 190.38035583, -0.01607139, 0.00527998, 0.99985689, -0.00002663, -0.00025984, -0.00376316, 0.00000000, 0.00000000, 0.00000000, 0.57935412, 0.81503206, 0.00250402, -0.00807942
424170334.025456, -0.01560974, 0.00476074, 0.99360657, 0.00830533, -0.00136913, -0.02554185, -172.30192566, 139.10769653, 190.54678345, -0.01612082, 0.00525170, 0.99985623, 0.00051108, -0.00049096, -0.00624969, 0.00000000, 0.00000000, 0.00000000, 0.57929455, 0.81507420, 0.00252927, -0.00809156
424170334.041212, -0.01765442, 0.00724792, 0.99337769, 0.00944836, -0.00371697, -0.02673281, -172.30192566, 139.10769653, 190.54678345, -0.01610481, 0.00524004, 0.99985659, -0.00154961, 0.00200788, -0.00647889, 0.00000000, 0.00000000, 0.00000000, 0.57922991, 0.81512024, 0.00252874, -0.00808185
424170334.057443, -0.01684570, 0.00505066, 0.99235535, 0.01294429, -0.00607787, -0.02789981, -170.59088135, 140.13432312, 191.87811279, -0.01602174, 0.00520471, 0.99985808, 0.00039674, 0.00053260, -0.00400849, 0.00000000, 0.00000000, 0.00000000, 0.57913510, 0.81518807, 0.00251815, -0.00803805
424170334.073003, -0.01612854, 0.00575256, 0.99259949, 0.01878035, -0.00722702, -0.01971085, -170.93309021, 139.10769653, 191.87811279, -0.01601446, 0.00519539, 0.99985826, -0.00060236, 0.00057244, -0.00550401, 0.00000000, 0.00000000, 0.00000000, 0.57907290, 0.81523230, 0.00251922, -0.00803258
424170334.089385, -0.01612854, 0.00575256, 0.99259949, 0.01878035, -0.00722702, -0.01971085, -170.24867249, 139.10769653, 190.87960815, -0.01595372, 0.00528116, 0.99985880, -0.00017482, 0.00047140, -0.00725930, 0.00000000, 0.00000000, 0.00000000, 0.57905060, 0.81524830, 0.00246645, -0.00803272
424170334.104322, -0.01623535, 0.00967407, 0.99514771, 0.01416855, -0.00136514, -0.01966105, -169.56427002, 138.42327881, 190.21394348, -0.01587683, 0.00537169, 0.99985951, -0.00035852, 0.00430239, -0.00471182, 0.00000000, 0.00000000, 0.00000000, 0.57899320, 0.81528930, 0.00240672, -0.00802775
424170334.120486, -0.01664734, 0.00674438, 0.99487305, 0.01175573, -0.00605017, -0.02441986, -168.36653137, 136.19892883, 189.38186646, -0.01590675, 0.00546601, 0.99985856, -0.00074059, 0.00127838, -0.00498549, 0.00000000, 0.00000000, 0.00000000, 0.57899881, 0.81528501, 0.00237699, -0.00806724
424170334.136132, -0.01684570, 0.00503540, 0.99435425, 0.00823370, -0.00604538, -0.02678448, -168.02432251, 137.90997314, 190.71319580, -0.01584607, 0.00552066, 0.99985921, -0.00206775, 0.00296323, -0.00521504, 0.00000000, 0.00000000, 0.00000000, 0.57889384, 0.81535975, 0.00233610, -0.00805863
424170334.154122, -0.01582336, 0.00404358, 0.99435425, 0.01997983, -0.00607307, -0.02084296, -169.56427002, 138.08106995, 189.21545410, -0.01581137, 0.00550628, 0.99985981, -0.00176676, -0.00118804, -0.00623800, 0.00000000, 0.00000000, 0.00000000, 0.57882368, 0.81540975, 0.00233122, -0.00804052
424170334.167628, -0.01582336, 0.00404358, 0.99435425, 0.01411715, -0.00607707, -0.02672349, -169.56427002, 138.08106995, 189.21545410, -0.01574802, 0.00550401, 0.99986082, -0.00007535, -0.00146043, -0.00550660, 0.00000000, 0.00000000, 0.00000000, 0.57879407, 0.81543108, 0.00231352, -0.00801411
424170334.182960, -0.01760864, 0.00553894, 0.99311829, 0.01881550, -0.00608825, -0.02434689, -169.22206116, 137.39665222, 188.54977417, -0.01569476, 0.00558041, 0.99986124, -0.00191388, -0.00004147, -0.00674297, 0.00000000, 0.00000000, 0.00000000, 0.57871449, 0.81548769, 0.00226617, -0.00801473
424170334.199211, -0.01979065, 0.00558472, 0.99513245, 0.01885891, -0.00136194, -0.01495631, -171.10420227, 138.25218201, 189.71469116, -0.01571460, 0.00570456, 0.99986023, -0.00407605, -0.00011984, -0.00472780, 0.00000000, 0.00000000, 0.00000000, 0.57865712, 0.81552809, 0.00222072, -0.00805890
424170334.214546, -0.01419067, 0.00643921, 0.99310303, 0.01177730, -0.00368688, -0.01972470, -169.05094910, 138.25218201, 190.38035583, -0.01571085, 0.00576669, 0.99985993, -0.00217245, 0.00125236, -0.00596346, 0.00000000, 0.00000000, 0.00000000, 0.57864026, 0.81553996, 0.00219414, -0.00807540
424170334.231466, -0.01863098, 0.00704956, 0.99214172, 0.01066942, -0.00020027, -0.02316977, -169.73536682, 139.27880859, 190.38035583, -0.01571548, 0.00580167, 0.99985969, 0.00001418, 0.00190401, -0.00573431, 0.00000000, 0.00000000, 0.00000000, 0.57860152, 0.81556736, 0.00218082, -0.00808751
424170334.246790, -0.01863098, 0.00704956, 0.99214172, 0.00950509, -0.00021518, -0.02667369, -169.73536682, 139.27880859, 190.38035583, -0.01574956, 0.00575152, 0.99985945, -0.00288142, 0.00129804, -0.00771770, 0.00000000, 0.00000000, 0.00000000, 0.57854223, 0.81560934, 0.00221055, -0.00808706
424170334.262942, -0.01589966, 0.00672913, 0.99536133, 0.01304310, 0.00335292, -0.01261087, -168.70874023, 138.93659973, 190.38035583, -0.01574192, 0.00582279, 0.99985915, -0.00015774, 0.00090634, -0.00449781, 0.00000000, 0.00000000, 0.00000000, 0.57851312, 0.81562990, 0.00217899, -0.00810464
424170334.279118, -0.01560974, 0.00451660, 0.99360657, 0.01895558, 0.00206848, -0.02653707, -170.07757568, 140.98985291, 190.38035583, -0.01571774, 0.00580409, 0.99985963, 0.00010800, -0.00128749, -0.00625306, 0.00000000, 0.00000000, 0.00000000, 0.57849146, 0.81564541, 0.00217940, -0.00808943
424170334.293984, 0.01371765, -0.09722900, 1.01931763, -0.01881523, 0.01329077, 0.05705530, -170.41978455, 140.30543518, 190.71319580, -0.01589088, 0.00534452, 0.99985945, -0.00940819, -0.03996671, -0.01002180, 0.00000000, 0.00000000, 0.00000000, 0.57844287, 0.81567982, 0.00241644, -0.00802725
424170334.310162, -0.06587219, 0.12091064, 0.97761536, 0.05069247, 0.00195369, -0.01689696, -170.76199341, 140.30543518, 191.04602051, -0.01589105, 0.00479000, 0.99986225, 0.01937006, 0.06761295, -0.01556355, 0.00000000, 0.00000000, 0.00000000, 0.57881611, 0.81541587, 0.00264626, -0.00786572
424170334.325505, -0.06587219, 0.12091064, 0.97761536, 0.04064570, -0.02088398, 0.05710510, -171.44641113, 138.93659973, 190.38035583, -0.01597835, 0.00422798, 0.99986339, 0.00224544, -0.03509651, -0.03376843, 0.00000000, 0.00000000, 0.00000000, 0.57897142, 0.81530595, 0.00290215, -0.00773809
424170334.341581, 0.00117493, 0.00137329, 1.01269531, -0.01067928, -0.00698973, -0.00721184, -171.95971680, 140.13432312, 190.87960815, -0.01571059, 0.00491882, 0.99986446, 0.01688552, -0.00354553, 0.01283083, 0.00000000, 0.00000000, 0.00000000, 0.57925391, 0.81510561, 0.00254570, -0.00782805
424170334.357624, -0.03065491, 0.02687073, 0.99414062, -0.02798982, 0.01051443, -0.02339454, -171.95971680, 140.13432312, 190.87960815, -0.01547777, 0.00483025, 0.99986857, -0.01517713, 0.02204048, -0.00572792, 0.00000000, 0.00000000, 0.00000000, 0.57957368, 0.81487951, 0.00251739, -0.00770651
424170334.372939, -0.01937866, -0.00122070, 0.98335266, 0.01413073, -0.00369966, -0.01970047, -170.59088135, 139.79211426, 189.21545410, -0.01563477, 0.00439069, 0.99986815, 0.00263428, 0.00490191, 0.00922611, 0.00000000, 0.00000000, 0.00000000, 0.57953633, 0.81490595, 0.00274164, -0.00764322
424170334.389208, -0.01274109, 0.00764465, 0.99586487, 0.02134604, 0.00919483, -0.00427970, -169.05094910, 138.93659973, 189.71469116, -0.01561692, 0.00414067, 0.99986947, -0.00605057, -0.00311833, -0.01900400, 0.00000000, 0.00000000, 0.00000000, 0.57951997, 0.81491799, 0.00283819, -0.00756355
424170334.404600, -0.01274109, 0.00764465, 0.99586487, 0.02703694, -0.00730745, -0.02544544, -169.73536682, 138.59439087, 189.71469116, -0.01572115, 0.00434026, 0.99986702, -0.00208586, 0.00782100, -0.01092962, 0.00000000, 0.00000000, 0.00000000, 0.57954190, 0.81490164, 0.00278728, -0.00766379
424170334.420495, -0.01564026, 0.01502991, 0.99768066, 0.00713967, -0.00018136, -0.02320625, -168.36653137, 138.25218201, 191.04602051, -0.01574384, 0.00458177, 0.99986553, 0.00010358, 0.01044814, -0.00218490, 0.00000000, 0.00000000, 0.00000000, 0.57956593, 0.81488411, 0.00269567, -0.00774294
424170334.436646, -0.01516724, 0.00695801, 0.99937439, 0.00248340, 0.00575882, -0.01035304, -168.02432251, 137.90997314, 189.38186646, -0.01573106, 0.00451070, 0.99986607, 0.00056382, 0.00244731, -0.00049170, 0.00000000, 0.00000000, 0.00000000, 0.57951972, 0.81491714, 0.00272049, -0.00771729
424170334.452248, -0.01770020, 0.00042725, 0.98658752, 0.02217375, -0.01901177, -0.03500273, -168.02432251, 137.90997314, 189.38186646, -0.01587295, 0.00427723, 0.99986488, -0.00075913, 0.00174999, -0.00474768, 0.00000000, 0.00000000, 0.00000000, 0.57954163, 0.81490118, 0.00285695, -0.00770738
424170334.467868, -0.01487732, 0.00450134, 0.99285889, 0.01995693, -0.00723341, -0.01969860, -167.33990479, 138.25218201, 189.71469116, -0.01568713, 0.00432576, 0.99986762, -0.00480542, 0.00031291, -0.00772587, 0.00000000, 0.00000000, 0.00000000, 0.57944457, 0.81497104, 0.00278241, -0.00764605
424170334.485347, -0.01626587, 0.01065063, 0.99514771, 0.01175040, -0.00484030, -0.01741654, -169.22206116, 137.73886108, 189.88111877, -0.01553362, 0.00456983, 0.99986893, 0.00326555, 0.00330371, -0.00375989, 0.00000000, 0.00000000, 0.00000000, 0.57941591, 0.81499182, 0.00263820, -0.00765430
424170334.499980, -0.01626587, 0.01065063, 0.99514771, 0.00126580, 0.00223519, -0.01508015, -169.90646362, 137.39665222, 188.88261414, -0.01545194, 0.00462252, 0.99986994, -0.00081393, 0.00602811, -0.00472222, 0.00000000, 0.00000000, 0.00000000, 0.57938715, 0.81501257, 0.00259279, -0.00763637
424170334.514809, -0.01518250, 0.00794983, 0.99563599, 0.00718015, 0.00334893, -0.01849166, -170.24867249, 140.13432312, 190.87960815, -0.01551359, 0.00450098, 0.99986953, 0.00033109, 0.00344885, -0.00423354, 0.00000000, 0.00000000, 0.00000000, 0.57937444, 0.81502149, 0.00266006, -0.00762633
424170334.530523, -0.01898193, 0.00288391, 0.99235535, 0.02230903, -0.00604298, -0.01383486, -169.73536682, 140.64764404, 192.37736511, -0.01559048, 0.00442623, 0.99986869, 0.00086575, 0.00352360, -0.00772694, 0.00000000, 0.00000000, 0.00000000, 0.57940938, 0.81499638, 0.00271313, -0.00763589
424170334.547132, -0.01626587, 0.00205994, 0.99731445, 0.01183402, -0.00018509, -0.01966558, -170.76199341, 140.98985291, 190.71319580, -0.01565766, 0.00440073, 0.99986774, -0.00147796, -0.00597239, -0.00307207, 0.00000000, 0.00000000, 0.00000000, 0.57942035, 0.81498830, 0.00274309, -0.00765585
424170334.563366, -0.01518250, 0.00744629, 0.99487305, -0.00805260, 0.00812211, -0.01507882, -170.76199341, 140.98985291, 190.71319580, -0.01563505, 0.00440693, 0.99986804, 0.00052885, -0.00013447, -0.00600209, 0.00000000, 0.00000000, 0.00000000, 0.57940691, 0.81499795, 0.00273389, -0.00764847
424170334.579341, -0.01518250, 0.00744629, 0.99487305, 0.01536244, 0.00099842, -0.01378985, -171.95971680, 139.44990540, 193.20944214, -0.01574959, 0.00421399, 0.99986708, 0.00056709, 0.00323230, -0.00499404, 0.00000000, 0.00000000, 0.00000000, 0.57938946, 0.81501006, 0.00284554, -0.00763931
424170334.594286, -0.01597595, 0.00944519, 0.99114990, 0.02466353, -0.00725898, -0.01965013, -169.90646362, 140.13432312, 192.21093750, -0.01577021, 0.00429199, 0.99986643, -0.00020574, 0.00515320, -0.00871653, 0.00000000, 0.00000000, 0.00000000, 0.57935161, 0.81503677, 0.00281937, -0.00767045
424170334.610483, -0.01710510, 0.00552368, 0.99261475, 0.01880724, -0.00607387, -0.02201902, -170.59088135, 139.44990540, 190.54678345, -0.01574182, 0.00437924, 0.99986649, 0.00109338, 0.00061038, -0.00651933, 0.00000000, 0.00000000, 0.00000000, 0.57934600, 0.81504078, 0.00277553, -0.00768417
424170334.625636, -0.01756287, 0.00479126, 0.99761963, 0.00489010, 0.00805207, -0.01494513, -170.24867249, 140.47653198, 190.87960815, -0.01574267, 0.00448433, 0.99986601, -0.00183545, -0.00016609, -0.00499297, 0.00000000, 0.00000000, 0.00000000, 0.57931735, 0.81506099, 0.00273268, -0.00771506
424170334.641745, -0.01756287, 0.00479126, 0.99761963, 0.01309583, 0.00686190, -0.01138794, -170.76199341, 138.59439087, 190.71319580, -0.01595071, 0.00440140, 0.99986309, -0.00380942, 0.00020675, -0.00697369, 0.00000000, 0.00000000, 0.00000000, 0.57929933, 0.81507290, 0.00282658, -0.00777589
424170334.658108, -0.01631165, 0.00332642, 0.99110413, 0.01064252, -0.00135315, -0.02086161, -170.76199341, 138.59439087, 190.71319580, -0.01608743, 0.00428576, 0.99986142, -0.00022422, -0.00095935, -0.00875728, 0.00000000, 0.00000000, 0.00000000, 0.57932918, 0.81505116, 0.00291360, -0.00779801
424170334.673162, -0.01574707, 0.00942993, 0.99114990, 0.01763465, -0.00607494, -0.02319533, -169.90646362, 138.08106995, 189.88111877, -0.01611582, 0.00445444, 0.99986023, 0.00036875, 0.00497549, -0.00871031, 0.00000000, 0.00000000, 0.00000000, 0.57933145, 0.81504919, 0.00285311, -0.00785844
424170334.689219, -0.01885986, 0.00704956, 0.99389648, 0.00832025, -0.00019494, -0.02435807, -168.70874023, 139.27880859, 191.04602051, -0.01611051, 0.00462652, 0.99985951, -0.00274936, 0.00242304, -0.00596303, 0.00000000, 0.00000000, 0.00000000, 0.57927610, 0.81508831, 0.00278090, -0.00790631
424170334.704723, -0.01728821, 0.00358582, 0.99211121, 0.01296720, -0.00491806, -0.02904417, -169.56427002, 137.05444336, 190.21394348, -0.01601730, 0.00465046, 0.99986088, -0.00015701, 0.00281109, -0.00674261, 0.00000000, 0.00000000, 0.00000000, 0.57919552, 0.81514600, 0.00274336, -0.00787553
424170334.721067, -0.01832581, 0.00579834, 0.99287415, 0.00955116, 0.00570662, -0.01260794, -166.99769592, 137.22555542, 190.04753113, -0.01607088, 0.00450672, 0.99986070, -0.00164457, -0.00336231, -0.00826829, 0.00000000, 0.00000000, 0.00000000, 0.57916238, 0.81516948, 0.00281715, -0.00785585
424170334.736341, -0.01832581, 0.00579834, 0.99287415, 0.01768738, -0.00256622, -0.02197214, -168.19543457, 138.08106995, 188.88261414, -0.01614015, 0.00449350, 0.99985963, -0.00218565, 0.00130484, -0.00698550, 0.00000000, 0.00000000, 0.00000000, 0.57914473, 0.81518170, 0.00284243, -0.00788033
424170334.752879, -0.01597595, 0.01016235, 0.99565125, 0.01533288, -0.00135022, -0.01615687, -168.19543457, 138.08106995, 188.88261414, -0.01618167, 0.00470951, 0.99985796, 0.00020571, 0.00545284, -0.00420673, 0.00000000, 0.00000000, 0.00000000, 0.57913479, 0.81518825, 0.00276631, -0.00795984
424170334.768016, -0.01913452, 0.00825500, 0.99539185, 0.02467525, -0.01088194, -0.03949654, -169.05094910, 139.27880859, 189.38186646, -0.01614007, 0.00493676, 0.99985754, -0.00299446, 0.00331825, -0.00446571, 0.00000000, 0.00000000, 0.00000000, 0.57911478, 0.81520234, 0.00266144, -0.00800876
424170334.783725, -0.01525879, -0.00177002, 0.96957397, 0.09012270, -0.03566479, -0.02526062, -169.39315796, 138.25218201, 190.38035583, -0.01605861, 0.00505854, 0.99985826, -0.00226720, 0.00073980, -0.00449693, 0.00000000, 0.00000000, 0.00000000, 0.57902386, 0.81526713, 0.00258731, -0.00801110
424170334.800247, -0.02769470, -0.02267456, 0.88232422, 0.35734802, -0.05054786, -0.12048647, -169.22206116, 138.76548767, 190.54678345, -0.01567556, 0.00566548, 0.99986106, -0.00678538, -0.00885457, 0.00146643, 0.00000000, 0.00000000, 0.00000000, 0.57889009, 0.81536299, 0.00222766, -0.00803104
424170334.815027, -0.02769470, -0.02267456, 0.88232422, -0.47430047, 0.01869140, -0.23043081, -170.24867249, 138.08106995, 191.21244812, -0.01511142, 0.01057412, 0.99982989, -0.01258328, -0.03324869, -0.11750568, 0.00000000, 0.00000000, 0.00000000, 0.57856601, 0.81558343, 0.00005944, -0.00922201
424170334.831199, -0.01098633, 0.04272461, 1.09027100, -0.03027774, -0.00279818, -0.10278444, -170.41978455, 137.90997314, 190.04753113, -0.01504090, 0.00622853, 0.99986750, 0.00405457, 0.03649608, 0.09040352, 0.00000000, 0.00000000, 0.00000000, 0.57725972, 0.81652003, 0.00179851, -0.00793886
424170334.847557, 0.00648499, 0.05651855, 1.09178162, 0.01729483, -0.02228107, -0.00135582, -170.93309021, 139.79211426, 191.54527283, -0.01509980, 0.00524804, 0.99987221, 0.02158478, 0.05127051, 0.09190939, 0.00000000, 0.00000000, 0.00000000, 0.57630096, 0.81719846, 0.00220681, -0.00768248
424170334.863027, 0.02584839, 0.03443909, 0.99385071, 0.01929940, -0.00966408, 0.15483592, -170.93309021, 139.79211426, 191.54527283, -0.01475607, 0.00508488, 0.99987817, 0.01840292, -0.00090397, -0.02537563, 0.00000000, 0.00000000, 0.00000000, 0.57619646, 0.81727397, 0.00217346, -0.00749528
424170334.879503, -0.00137329, 0.01916504, 0.98588562, 0.02524783, 0.00940122, 0.22388503, -171.95971680, 139.79211426, 190.87960815, -0.01374391, 0.00557200, 0.99989003, 0.03831057, 0.00350698, -0.02221363, 0.00000000, 0.00000000, 0.00000000, 0.57691521, 0.81677038, 0.00168911, -0.00722049
424170334.894685, -0.00137329, 0.01916504, 0.98588562, 0.20132113, -0.02202248, 0.20541228, -170.41978455, 139.62101746, 192.04452515, -0.01365413, 0.00553223, 0.99989146, 0.01228084, 0.01363281, -0.01400585, 0.00000000, 0.00000000, 0.00000000, 0.57834106, 0.81576182, 0.00169198, -0.00716941
424170334.910696, -0.00793457, 0.07164001, 0.92466736, 0.35983381, -0.27541001, 0.14114993, -169.90646362, 139.44990540, 192.21093750, -0.01335031, 0.00831937, 0.99987626, 0.00541574, 0.06332064, -0.07520891, 0.00000000, 0.00000000, 0.00000000, 0.57981783, 0.81470818, 0.00048147, -0.00785065
424170334.925942, -0.05865479, 0.02490234, 1.08966064, 0.15567002, -0.98696324, 0.03635614, -170.59088135, 139.44990540, 190.54678345, -0.01098265, 0.01380024, 0.99984443, -0.04767214, 0.01110210, 0.08981619, 0.00000000, 0.00000000, 0.00000000, 0.58101908, 0.81384216, -0.00242524, -0.00847883
424170334.941709, -0.00488281, 0.05546570, 1.04389954, 0.08472527, -1.38381632, -0.02454875, -170.59088135, 137.05444336, 191.54527283, 0.00100594, 0.01659147, 0.99986184, -0.03939706, 0.03408297, 0.07791220, 0.00000000, 0.00000000, 0.00000000, 0.58147197, 0.81352398, -0.00704173, -0.00441486
424170334.957662, 0.07720947, 0.04238892, 0.98861694, 0.30637804, -0.99035398, -0.00169963, -170.59088135, 137.05444336, 191.54527283, 0.02126053, 0.01836633, 0.99960524, 0.01320907, 0.01939917, 0.04090683, 0.00000000, 0.00000000, 0.00000000, 0.58142226, 0.81348066, -0.01365369, 0.00330887
424170334.973407, 0.07720947, 0.04238892, 0.98861694, 0.76896460, -0.02238414, 0.08097528, -170.07757568, 138.25218201, 189.38186646, 0.04027372, 0.02115199, 0.99896479, 0.06789584, 0.04948094, -0.02304314, 0.00000000, 0.00000000, 0.00000000, 0.58130383, 0.81336845, -0.02031833, 0.01023612
424170334.989221, 0.14395142, 0.06813049, 0.97718811, 0.55020429, 0.00144716, 0.15590651, -169.73536682, 135.51451111, 192.04452515, 0.04581369, 0.03089669, 0.99847209, 0.09813773, 0.03723381, -0.02128397, 0.00000000, 0.00000000, 0.00000000, 0.58172668, 0.81291458, -0.02590349, 0.00964196
424170335.004991, 0.15641785, 0.05358887, 1.00247192, 0.22201496, -0.99204109, 0.21969348, -169.39315796, 136.88334656, 191.71170044, 0.04429520, 0.04130932, 0.99816406, 0.11212265, 0.01227955, 0.00430787, 0.00000000, 0.00000000, 0.00000000, 0.58275693, 0.81208152, -0.02970720, 0.00595448
424170335.021278, 0.13919067, 0.10354614, 1.02220154, 0.13269253, -1.34035513, 0.25368101, -170.93309021, 136.37004089, 191.54527283, 0.05481587, 0.04584968, 0.99744326, 0.10596599, 0.02130425, -0.05106263, 0.00000000, 0.00000000, 0.00000000, 0.58394410, 0.81100611, -0.03464117, 0.00885249
424170335.036617, 0.14935303, 0.11177063, 1.05517578, 0.33177661, -0.66894239, 0.27977173, -171.44641113, 138.25218201, 190.71319580, 0.07528849, 0.04757896, 0.99602604, 0.05212240, 0.04388222, 0.05611324, 0.00000000, 0.00000000, 0.00000000, 0.58525181, 0.80962544, -0.04137414, 0.01658786
424170335.053258, 0.14935303, 0.11177063, 1.05517578, 0.23376110, 0.55041521, 0.31307429, -170.41978455, 139.27880859, 190.38035583, 0.09087496, 0.05124316, 0.99454308, 0.06978483, 0.05468335, 0.18038371, 0.00000000, 0.00000000, 0.00000000, 0.58679093, 0.80805193, -0.04749546, 0.02174065
424170335.068203, 0.14888000, 0.08906555, 1.23977661, 0.19870910, 1.00477233, 0.32960533, -170.41978455, 139.27880859, 190.38035583, 0.08848462, 0.05477149, 0.99457055, 0.06039538, 0.03429407, 0.24520607, 0.00000000, 0.00000000, 0.00000000, 0.58894349, 0.80649292, -0.04827368, 0.01960568
424170335.083461, 0.15370178, 0.10975647, 1.17474365, -0.08193242, 0.53954339, 0.35266165, -172.30192566, 138.76548767, 192.54377747, 0.07431390, 0.05778134, 0.99555951, 0.07938788, 0.05197513, 0.17918412, 0.00000000, 0.00000000, 0.00000000, 0.59147581, 0.80494480, -0.04533348, 0.01284969
424170335.099792, 0.16612244, 0.08103943, 1.06059265, -0.17002659, -0.08992376, 0.41339344, -173.49966431, 139.96322632, 190.04753113, 0.06283255, 0.05725453, 0.99638045, 0.09558420, 0.01928356, 0.13612688, 0.00000000, 0.00000000, 0.00000000, 0.59404761, 0.80330421, -0.04173470, 0.00824579
424170335.115648, 0.14904785, 0.08065796, 1.06866455, -0.17470337, -0.14070066, 0.50444319, -172.64413452, 139.10769653, 191.21244812, 0.06176081, 0.05424259, 0.99661595, 0.11035833, 0.03012326, 0.05344814, 0.00000000, 0.00000000, 0.00000000, 0.59663605, 0.80145705, -0.04022898, 0.00858230
424170335.132486, 0.14904785, 0.08065796, 1.06866455, -0.05964442, -0.08892561, 0.48439465, -172.64413452, 138.76548767, 190.87960815, 0.06488142, 0.05121245, 0.99657798, 0.00796404, 0.05331025, 0.08171486, 0.00000000, 0.00000000, 0.00000000, 0.59969378, 0.79915979, -0.03998638, 0.01058753
424170335.147774, -0.02087402, 0.10899353, 1.02244568, -0.07975555, -0.34174668, 0.35310027, -173.49966431, 138.93659973, 191.71170044, 0.06650115, 0.04885436, 0.99658960, -0.08737517, 0.06013917, 0.02585607, 0.00000000, 0.00000000, 0.00000000, 0.60292670, 0.79672718, -0.03957695, 0.01178393
424170335.163501, -0.12445068, 0.11036682, 0.99784851, -0.04575151, -0.82154498, 0.18366490, -173.49966431, 138.93659973, 191.71170044, 0.07066758, 0.04722645, 0.99638134, -0.19511826, 0.06314037, 0.00146718, 0.00000000, 0.00000000, 0.00000000, 0.60543404, 0.79475801, -0.04023187, 0.01381055
424170335.179757, -0.12776184, 0.09582520, 0.91136169, 0.06550018, -0.95241565, 0.06974446, -173.49966431, 137.56776428, 192.71018982, 0.08110216, 0.04556011, 0.99566394, -0.22726610, 0.05571247, -0.05817921, 0.00000000, 0.00000000, 0.00000000, 0.60681189, 0.79348050, -0.04277514, 0.01839316
424170335.194416, -0.06216431, 0.08222961, 1.02821350, 0.27782842, -0.21644842, -0.02515622, -172.81524658, 138.25218201, 192.04452515, 0.09641438, 0.04564197, 0.99429429, -0.18018512, 0.03997509, -0.03234968, 0.00000000, 0.00000000, 0.00000000, 0.60721673, 0.79273891, -0.04749880, 0.02442812
424170335.209816, 0.01177979, 0.08619690, 1.17063904, 0.27868596, 0.62247209, -0.07980935, -172.13082886, 138.25218201, 189.71469116, 0.10438021, 0.04869549, 0.99334460, -0.13126619, 0.03101643, 0.10856884, 0.00000000, 0.00000000, 0.00000000, 0.60719218, 0.79245818, -0.05115422, 0.02666344
424170335.226258, 0.01177979, 0.08619690, 1.17063904, 0.04722184, 0.49281237, -0.11115901, -172.98634338, 137.73886108, 189.54827881, 0.09841332, 0.05332654, 0.99371582, -0.08663353, 0.03287036, 0.17692323, 0.00000000, 0.00000000, 0.00000000, 0.60709605, 0.79264891, -0.05116856, 0.02288836
424170335.242679, 0.05828857, 0.10353088, 1.10485840, -0.12060897, -0.13430881, -0.11988939, -172.98634338, 138.08106995, 189.54827881, 0.08864468, 0.05524173, 0.99453026, -0.03035611, 0.04828916, 0.11032812, 0.00000000, 0.00000000, 0.00000000, 0.60682508, 0.79311314, -0.04893621, 0.01844204
424170335.258624, 0.03947449, 0.11584473, 0.99493408, -0.07723673, -0.66602836, -0.18185316, -172.98634338, 138.08106995, 189.54827881, 0.08719914, 0.05388383, 0.99473256, -0.02826970, 0.05474349, 0.05244763, 0.00000000, 0.00000000, 0.00000000, 0.60625328, 0.79361403, -0.04794013, 0.01831585
424170335.273494, 0.14604187, 0.07722473, 1.02120972, 0.00725072, -0.67688447, -0.16369466, -172.13082886, 137.22555542, 190.04753113, 0.09519052, 0.05237355, 0.99408036, -0.01439523, 0.04548106, -0.00354082, 0.00000000, 0.00000000, 0.00000000, 0.60510076, 0.79428789, -0.04974701, 0.02202389
424170335.289992, 0.24783325, 0.06449890, 1.14837646, 0.09870607, -0.10388912, -0.10312612, -172.13082886, 137.56776428, 192.04452515, 0.10635398, 0.05195023, 0.99297029, 0.09468056, 0.01556991, 0.07976835, 0.00000000, 0.00000000, 0.00000000, 0.60382056, 0.79491249, -0.05294339, 0.02668052
424170335.305154, 0.24783325, 0.06449890, 1.14837646, 0.01718564, 0.26016794, -0.00595190, -171.61750793, 136.37004089, 190.54678345, 0.11126276, 0.05318904, 0.99236661, 0.13657050, 0.01130986, 0.15600984, 0.00000000, 0.00000000, 0.00000000, 0.60299905, 0.79534613, -0.05490708, 0.02831781
424170335.321885, 0.28283691, 0.03109741, 1.17683411, -0.07834674, 0.56375418, 0.11567147, -169.90646362, 136.37004089, 191.87811279, 0.10870269, 0.05377796, 0.99261856, 0.17413422, -0.02268055, 0.18421552, 0.00000000, 0.00000000, 0.00000000, 0.60293140, 0.79547660, -0.05436031, 0.02712312
424170335.336622, 0.26750183, 0.01708984, 1.14810181, -0.15557441, 0.46431068, 0.20049635, -171.95971680, 136.02783203, 190.21394348, 0.10139941, 0.05265776, 0.99345124, 0.16610242, -0.03556791, 0.15465058, 0.00000000, 0.00000000, 0.00000000, 0.60367421, 0.79517486, -0.05171149, 0.02450129
424170335.353721, 0.19477844, 0.04753113, 1.08886719, -0.28686080, 0.14194089, 0.24029916, -172.30192566, 137.73886108, 190.54678345, 0.09319569, 0.05019121, 0.99438190, 0.13443492, -0.02055865, 0.11084269, 0.00000000, 0.00000000, 0.00000000, 0.60506947, 0.79440663, -0.04826663, 0.02189456
424170335.368746, 0.07652283, 0.07759094, 1.00112915, -0.16399453, 0.01487961, 0.18708547, -172.30192566, 137.73886108, 190.54678345, 0.08942852, 0.04564450, 0.99494678, 0.04075947, 0.02285220, 0.03500621, 0.00000000, 0.00000000, 0.00000000, 0.60667508, 0.79335915, -0.04534784, 0.02168356
424170335.384601, 0.07652283, 0.07759094, 1.00112915, -0.18823462, 0.02618633, 0.10554933, -171.95971680, 139.10769653, 189.21545410, 0.08923714, 0.04167267, 0.99513823, -0.01271431, 0.03591827, 0.00599091, 0.00000000, 0.00000000, 0.00000000, 0.60801528, 0.79239292, -0.04374568, 0.02274191
424170335.399948, 0.02717590, 0.07356262, 1.05982971, -0.29093357, -0.00629411, 0.04690519, -173.84187317, 139.27880859, 190.71319580, 0.08874097, 0.03887811, 0.99529570, -0.06156507, 0.03468452, 0.06453401, 0.00000000, 0.00000000, 0.00000000, 0.60894423, 0.79172898, -0.04250960, 0.02334702
424170335.415444, 0.02362061, 0.05876160, 1.04301453, -0.24180091, 0.03989362, 0.00861692, -173.67076111, 138.76548767, 190.21394348, 0.08897963, 0.03450926, 0.99543548, -0.06535903, 0.02425233, 0.04757908, 0.00000000, 0.00000000, 0.00000000, 0.60936082, 0.79145254, -0.04085982, 0.02475378
424170335.431869, -0.03462219, 0.04650879, 0.99853516, -0.23287373, 0.06623947, -0.06533799, -174.52629089, 138.59439087, 190.38035583, 0.08860730, 0.02991075, 0.99561745, -0.07966565, 0.01397352, -0.00533729, 0.00000000, 0.00000000, 0.00000000, 0.60953551, 0.79137550, -0.03892526, 0.02600197
424170335.448381, -0.05532837, 0.03875732, 1.03132629, -0.41668298, -0.03710556, -0.14114248, -173.84187317, 139.27880859, 191.04602051, 0.08762598, 0.02656198, 0.99579924, -0.16419458, 0.03282522, 0.07277375, 0.00000000, 0.00000000, 0.00000000, 0.60938656, 0.79154762, -0.03728991, 0.02664277
424170335.463311, -0.05532837, 0.03875732, 1.03132629, -0.27744013, -0.09051792, -0.16153084, -173.84187317, 139.27880859, 191.04602051, 0.08756535, 0.02050151, 0.99594778, -0.14289372, 0.01825581, 0.03537850, 0.00000000, 0.00000000, 0.00000000, 0.60871417, 0.79211170, -0.03484147, 0.02849873
424170335.481225, -0.01399231, 0.01535034, 0.90452576, -0.24297084, -0.22404136, -0.20530016, -174.86849976, 140.30543518, 191.71170044, 0.08870436, 0.01544556, 0.99593824, -0.10269667, -0.00009521, -0.09141248, 0.00000000, 0.00000000, 0.00000000, 0.60776701, 0.79283566, -0.03314600, 0.03053235
424170335.494917, 0.03196716, -0.00230408, 0.90560913, -0.21380922, -0.23815797, -0.19708457, -173.84187317, 139.62101746, 189.38186646, 0.09143328, 0.01150894, 0.99574471, -0.05946612, -0.01381302, -0.09013557, 0.00000000, 0.00000000, 0.00000000, 0.60654816, 0.79370755, -0.03236557, 0.03286521
424170335.511266, 0.06130981, -0.01387024, 0.95578003, -0.17136563, 0.12809139, -0.20332942, -174.01296997, 137.39665222, 189.21545410, 0.09558731, 0.00811583, 0.99538797, -0.04025894, -0.02079588, -0.06650918, 0.00000000, 0.00000000, 0.00000000, 0.60523344, 0.79459831, -0.03222504, 0.03560287
424170335.526328, 0.09768677, -0.01081848, 1.10392761, 0.02132846, 1.56523245, -0.18197886, -171.44641113, 138.59439087, 189.04902649, 0.09560949, 0.00511961, 0.99540573, -0.02413732, -0.00862913, -0.06457385, 0.00000000, 0.00000000, 0.00000000, 0.60398517, 0.79555314, -0.03098098, 0.03656913
424170335.542184, 0.09768677, -0.01081848, 1.10392761, -0.24147068, -0.12944188, -0.19555805, -172.64413452, 139.10769653, 190.21394348, 0.08088672, 0.00476253, 0.99671191, 0.01680004, -0.01558101, 0.10721569, 0.00000000, 0.00000000, 0.00000000, 0.60313263, 0.79660968, -0.02633294, 0.03083205
424170335.558771, 0.16860962, -0.01159668, 1.02960205, -0.79945832, -0.92317760, -0.12152297, -174.01296997, 138.42327881, 189.54827881, 0.07005635, 0.00367694, 0.99753624, 0.09855327, -0.01527362, 0.03206579, 0.00000000, 0.00000000, 0.00000000, 0.60208579, 0.79765959, -0.02258426, 0.02686674
424170335.573717, 0.20620728, 0.01644897, 1.02558899, -0.83922384, -1.18042671, -0.04010587, -174.01296997, 138.42327881, 189.54827881, 0.07936393, -0.00851865, 0.99680930, 0.12684335, 0.02496763, 0.02877968, 0.00000000, 0.00000000, 0.00000000, 0.60105764, 0.79820697, -0.02048400, 0.03428922
424170335.589798, 0.18797302, -0.04776001, 1.03565979, -0.69218460, -0.73615125, 0.01772893, -171.78862000, 138.59439087, 188.71620178, 0.09785176, -0.02106688, 0.99497801, 0.13209818, -0.01057985, 0.06805605, 0.00000000, 0.00000000, 0.00000000, 0.60024055, 0.79824826, -0.02101176, 0.04549183
424170335.605211, 0.13211060, 0.00744629, 0.72656250, -0.19975226, -0.41078514, 0.02713681, -172.98634338, 139.10769653, 189.54827881, 0.11184235, -0.03394565, 0.99314600, 0.03435211, 0.01119479, -0.18649012, 0.00000000, 0.00000000, 0.00000000, 0.59991742, 0.79791735, -0.02007397, 0.05499122
424170335.621245, 0.13211060, 0.00744629, 0.72656250, -0.15754169, -0.13329787, 0.01242418, -172.81524658, 139.62101746, 190.71319580, 0.11982224, -0.03939434, 0.99201345, 0.01228836, 0.04684063, -0.26545095, 0.00000000, 0.00000000, 0.00000000, 0.59992156, 0.79755931, -0.02031343, 0.05983838
424170335.636941, 0.09397888, -0.00086975, 0.88276672, -0.08033159, -0.02421639, -0.02335672, -175.03959656, 139.44990540, 192.21093750, 0.12320073, -0.04222739, 0.99148291, -0.02922185, 0.04135764, -0.10871622, 0.00000000, 0.00000000, 0.00000000, 0.60001988, 0.79731902, -0.02021317, 0.06204802
424170335.652680, 0.13037109, 0.02125549, 0.90769958, -0.14679291, -0.27116386, 0.00092358, -176.23731995, 140.64764404, 191.37886047, 0.12395287, -0.04406892, 0.99130905, 0.00641822, 0.06532442, -0.08360945, 0.00000000, 0.00000000, 0.00000000, 0.59999174, 0.79728566, -0.01970321, 0.06290678
424170335.668700, 0.14846802, 0.00439453, 0.98963928, -0.33529784, -0.93180704, 0.02749767, -176.23731995, 140.64764404, 191.37886047, 0.12625907, -0.04595125, 0.99093246, 0.01995065, 0.05760896, -0.03394698, 0.00000000, 0.00000000, 0.00000000, 0.59993787, 0.79720812, -0.01964652, 0.06440331
424170335.683910, 0.11151123, 0.00331116, 0.97511292, -0.48248463, -1.58450894, 0.05347201, -177.43505859, 142.18757629, 191.54527283, 0.13694693, -0.04810836, 0.98940951, -0.00848318, 0.06809737, -0.00028900, 0.00000000, 0.00000000, 0.00000000, 0.59985521, 0.79679262, -0.02202460, 0.06935543
424170335.700168, 0.11151123, 0.00331116, 0.97511292, -0.39652045, -1.86855398, 0.06475743, -177.26394653, 139.96322632, 190.71319580, 0.15834285, -0.05530941, 0.98583388, -0.07159663, 0.06397640, -0.06047986, 0.00000000, 0.00000000, 0.00000000, 0.59969616, 0.79578983, -0.02565317, 0.08015598
424170335.716048, 0.06159973, 0.01296997, 0.90031433, -0.33433830, -1.80821474, 0.06175817, -178.46168518, 140.81874084, 193.20944214, 0.18652691, -0.06259361, 0.98045385, -0.12492718, 0.07556358, -0.08013952, 0.00000000, 0.00000000, 0.00000000, 0.59944605, 0.79428670, -0.03135420, 0.09375494
424170335.731941, 0.10678101, -0.00411987, 0.88417053, -0.25986993, -1.89030508, 0.25669677, -180.51493835, 140.47653198, 193.20944214, 0.21491492, -0.06827396, 0.97424340, -0.10813390, 0.06415409, -0.09007289, 0.00000000, 0.00000000, 0.00000000, 0.59915389, 0.79255052, -0.03781527, 0.10699670
424170335.747727, 0.63995361, -0.08175659, 0.82196045, -0.27569390, -1.95204062, 0.45452437, -180.34382629, 140.98985291, 193.04302979, 0.24235286, -0.07356270, 0.96739525, 0.28628787, 0.00013740, -0.15693995, 0.00000000, 0.00000000, 0.00000000, 0.59945253, 0.79016093, -0.04429851, 0.11974976
424170335.763591, 0.21821594, -0.04756165, 1.00451660, -0.40365879, -2.08578324, 0.42069503, -180.00161743, 140.30543518, 193.04302979, 0.27153429, -0.07923249, 0.95916182, 0.09841505, 0.02571992, 0.02745625, 0.00000000, 0.00000000, 0.00000000, 0.60112565, 0.78627530, -0.05151574, 0.13328628
424170335.781314, 0.37199402, -0.03927612, 0.83712769, -0.43025738, -2.71012993, 0.41930433, -180.00161743, 140.30543518, 193.04302979, 0.30140910, -0.08690377, 0.94952637, -0.03546367, 0.03828927, -0.01046995, 0.00000000, 0.00000000, 0.00000000, 0.60266997, 0.78201796, -0.05831668, 0.14777006
424170335.795625, 0.37199402, -0.03927612, 0.83712769, -0.42636810, -3.18251958, 0.48012667, -181.71266174, 140.30543518, 193.70869446, 0.33762318, -0.09581961, 0.93639159, 0.03437083, 0.05654348, -0.09926389, 0.00000000, 0.00000000, 0.00000000, 0.60352838, 0.77714174, -0.06677356, 0.16536476
424170335.811178, 0.50906372, -0.05899048, 0.85913086, -0.40192773, -3.03864390, 0.55145278, -181.88375854, 140.13432312, 194.54077148, 0.38187972, -0.10477707, 0.91825360, 0.12718400, 0.04578659, -0.05912273, 0.00000000, 0.00000000, 0.00000000, 0.60408302, 0.77085051, -0.07815421, 0.18645409
424170335.826940, 0.50268555, -0.08871460, 0.66764832, -0.06161569, -2.73467895, 0.55193215, -182.91038513, 141.84536743, 195.87210083, 0.42584580, -0.11462846, 0.89750522, 0.09731705, 0.03334489, -0.11230323, 0.00000000, 0.00000000, 0.00000000, 0.60460467, 0.76367913, -0.08955390, 0.20791218
424170335.842356, 0.53358459, -0.07875061, 0.70602417, 0.24379908, -2.46517717, 0.61199415, -184.10812378, 141.33206177, 196.03851318, 0.46439740, -0.12170811, 0.87722415, 0.01556780, 0.04941196, -0.28373355, 0.00000000, 0.00000000, 0.00000000, 0.60555915, 0.75624744, -0.10077574, 0.22634527
424170335.859442, 0.72750854, -0.08357239, 1.18852234, -0.13919118, -2.69597869, 0.70307346, -185.47695923, 143.04309082, 196.37135315, 0.49787125, -0.12393343, 0.85834998, 0.10488144, 0.06695711, 0.09414939, 0.00000000, 0.00000000, 0.00000000, 0.60732425, 0.74855344, -0.11278741, 0.24104771
424170335.874173, 0.72750854, -0.08357239, 1.18852234, -0.75079944, -3.07805868, 0.85674638, -185.13475037, 143.72750854, 199.03401184, 0.53125966, -0.12930204, 0.83728379, 0.19624887, 0.04572966, 0.35123855, 0.00000000, 0.00000000, 0.00000000, 0.60891240, 0.74018077, -0.12397851, 0.25688019
424170335.889928, 0.79415894, -0.11389160, 1.18913269, -0.78216269, -3.03057479, 0.95846955, -185.13475037, 143.72750854, 199.03401184, 0.56821209, -0.14368956, 0.81023967, 0.22594681, 0.02979796, 0.37889305, 0.00000000, 0.00000000, 0.00000000, 0.60944478, 0.73054561, -0.13330950, 0.27768463
