Timestamp, AccelerationX, AccelerationY, AccelerationZ, GyroX, GyroY, GyroZ, MagnetometerX, MagnetometerY, MagnetometerZ, DMUserAccelerationX, DMUserAccelerationY, DMUserAccelerationZ, DMGravityX, DMGravityY, DMGravityZ, DMMagX, DMMagY, DMMagZ, DMAttitudeX, DMAttitudeY, DMAttitudeZ, DMAttitudeW 
424169521.322260, 0.17503357, -0.40560913, -1.19461060, 0.35880183, -0.01502183, -0.03607864, -164.26002502, 143.72750854, 237.30978394, 0.14884372, -0.40102422, -0.90389442, 0.02618985, -0.00458491, -0.29071617, 0.00000000, 0.00000000, 0.00000000, 0.21693291, -0.03151035, -0.46746002, 0.85640431
424169521.338677, 0.10244751, -0.41159058, -1.00144958, 0.45590522, 0.17731992, 0.00888191, -162.89120483, 143.72750854, 236.97695923, 0.14726059, -0.40479219, -0.90247303, -0.00042527, -0.00425018, -0.18761484, 0.00000000, 0.00000000, 0.00000000, 0.21829964, -0.03329774, -0.46782557, 0.85578955
424169521.354394, 0.09910583, -0.41519165, -0.93479919, 0.42221836, 0.05601613, -0.00629731, -163.40451050, 145.95187378, 236.14486694, 0.14905939, -0.41095528, -0.89938706, -0.05788812, -0.00345817, -0.06507523, 0.00000000, 0.00000000, 0.00000000, 0.22169796, -0.03400724, -0.46735152, 0.85514682
424169521.369923, 0.11477661, -0.43388367, -0.86763000, 0.23898782, -0.29458849, -0.04897979, -164.08892822, 144.58303833, 233.81504822, 0.14910007, -0.41696253, -0.89661109, -0.04117465, -0.01321326, -0.00864710, 0.00000000, 0.00000000, 0.00000000, 0.22458681, -0.03542918, -0.46676711, 0.85465432
424169521.386589, 0.06872559, -0.42193604, -0.78808594, -0.05689444, -0.48598455, -0.11694899, -164.08892822, 144.58303833, 233.81504822, 0.14667855, -0.42125973, -0.89500034, -0.03190194, -0.01262394, 0.02737036, 0.00000000, 0.00000000, 0.00000000, 0.22599923, -0.03773816, -0.46711405, 0.85399335
424169521.401840, 0.06872559, -0.42193604, -0.78808594, -0.28777586, -0.51669746, -0.19203176, -163.06230164, 142.18757629, 236.14486694, 0.14109634, -0.42154169, -0.89576471, -0.07237075, -0.00039434, 0.10767877, 0.00000000, 0.00000000, 0.00000000, 0.22464976, -0.04062177, -0.46837333, 0.85352726
424169521.417748, 0.09304810, -0.41923523, -0.79820251, -0.35316605, -0.33767844, -0.18041452, -163.91783142, 144.06971741, 237.64262390, 0.13465177, -0.41795921, -0.89843142, -0.04160368, -0.00127600, 0.10022889, 0.00000000, 0.00000000, 0.00000000, 0.22120300, -0.04305269, -0.47041746, 0.85318410
424169521.433619, 0.18748474, -0.51669312, -0.80378723, -0.22376332, 0.06072353, -0.00481340, -163.40451050, 144.24082947, 237.80903625, 0.12985809, -0.41304925, -0.90140289, -0.00676545, -0.02365730, 0.08440156, 0.00000000, 0.00000000, 0.00000000, 0.21755575, -0.04436262, -0.47238028, 0.85297030
424169521.449182, 0.23135376, -0.51911926, -0.86599731, -0.01038100, 0.41555007, 0.18257541, -164.26002502, 145.09634399, 237.30978394, 0.12933470, -0.40880397, -0.90341121, 0.09722780, -0.11269565, 0.04766782, 0.00000000, 0.00000000, 0.00000000, 0.21539254, -0.04359406, -0.47292404, 0.85325756
424169521.465213, 0.19094849, -0.47940063, -0.91662598, 0.22827552, 0.65092531, 0.32866178, -163.23341370, 146.46517944, 238.30828857, 0.13284667, -0.40779647, -0.90335697, 0.09850709, -0.11132279, 0.03735965, 0.00000000, 0.00000000, 0.00000000, 0.21588855, -0.04139630, -0.47143944, 0.85406284
424169521.481238, 0.19094849, -0.47940063, -0.91662598, 0.44215878, 0.78896547, 0.37858965, -165.45776367, 143.55641174, 236.81053162, 0.14129063, -0.41267440, -0.89985377, 0.04965784, -0.06672624, -0.01677221, 0.00000000, 0.00000000, 0.00000000, 0.22049147, -0.03816580, -0.46834942, 0.85473722
424169521.496588, 0.10691833, -0.39465332, -0.91294861, 0.30973709, 0.51847858, 0.31217015, -164.26002502, 144.41192627, 237.30978394, 0.14948361, -0.41900712, -0.89559346, -0.04256527, 0.02435381, -0.01735513, 0.00000000, 0.00000000, 0.00000000, 0.22576432, -0.03512453, -0.46419988, 0.85575418
424169521.513701, 0.11575317, -0.42579651, -0.94271851, 0.20880541, 0.17715294, 0.33335054, -164.43113708, 143.21420288, 236.81053162, 0.15550241, -0.42454273, -0.89195430, -0.02648934, 0.00957997, -0.01954473, 0.00000000, 0.00000000, 0.00000000, 0.23007832, -0.03296695, -0.46067182, 0.85659712
424169521.529963, 0.11753845, -0.42547607, -0.84284973, 0.17852926, 0.18996541, 0.30182404, -164.43113708, 144.92524719, 236.47770691, 0.15790032, -0.42912096, -0.88933831, 0.03674079, -0.01231580, 0.00396236, 0.00000000, 0.00000000, 0.00000000, 0.23299444, -0.03231749, -0.45777383, 0.85738690
424169521.543869, 0.12750244, -0.39595032, -0.68710327, -0.04002092, 0.26056981, 0.19946437, -164.43113708, 144.92524719, 236.47770691, 0.15765657, -0.43228382, -0.88784856, -0.04011812, 0.00680776, 0.04499884, 0.00000000, 0.00000000, 0.00000000, 0.23455716, -0.03253692, -0.45514057, 0.85835386
424169521.559474, 0.12750244, -0.39595032, -0.68710327, -0.22063571, 0.65475280, 0.17157202, -164.43113708, 145.60966492, 235.81204224, 0.15881230, -0.43332589, -0.88713431, -0.03130986, 0.03737555, 0.20003107, 0.00000000, 0.00000000, 0.00000000, 0.23542859, -0.03172077, -0.45305534, 0.85924853
424169521.575602, 0.18359375, -0.45193481, -0.69686890, -0.36338034, 0.80211536, 0.28194780, -166.14218140, 146.63629150, 236.47770691, 0.16513723, -0.43145755, -0.88689011, 0.01845652, -0.02047728, 0.19002123, 0.00000000, 0.00000000, 0.00000000, 0.23618337, -0.02779131, -0.45083097, 0.86034673
424169521.591578, 0.20825195, -0.44856262, -0.82534790, -0.34018048, 0.80258088, 0.37879978, -165.79997253, 145.26745605, 235.81204224, 0.17404778, -0.42754951, -0.88707882, 0.03023688, -0.03683649, 0.13254693, 0.00000000, 0.00000000, 0.00000000, 0.23659976, -0.02193527, -0.44772881, 0.86201990
424169521.607450, 0.15783691, -0.40173340, -0.88658142, -0.20905149, 0.84057407, 0.40989937, -165.79997253, 145.95187378, 237.14337158, 0.18305624, -0.42360693, -0.88715702, 0.01459086, -0.00061791, 0.02636295, 0.00000000, 0.00000000, 0.00000000, 0.23700710, -0.01578381, -0.44372948, 0.86410801
424169521.623771, 0.12687683, -0.34191895, -0.86793518, -0.02459083, 0.88720495, 0.37419517, -165.97106934, 146.46517944, 236.31129456, 0.19174758, -0.42104217, -0.88654178, -0.03391067, 0.01930878, -0.00003963, 0.00000000, 0.00000000, 0.00000000, 0.23796787, -0.01001975, -0.43935562, 0.86616253
424169521.638790, 0.12687683, -0.34191895, -0.86793518, 0.12872709, 1.03768021, 0.30381928, -166.48439026, 145.60966492, 237.14337158, 0.20103323, -0.42095152, -0.88452554, -0.07415641, 0.07903257, 0.01659038, 0.00000000, 0.00000000, 0.00000000, 0.24024219, -0.00457322, -0.43491673, 0.86781923
424169521.655125, 0.15827942, -0.38816833, -0.78584290, 0.12664796, 1.28071949, 0.34277200, -167.16880798, 144.92524719, 236.47770691, 0.21246363, -0.42306957, -0.88083559, -0.05418421, 0.03490122, 0.09499270, 0.00000000, 0.00000000, 0.00000000, 0.24409132, 0.00127505, -0.43067472, 0.86887116
424169521.670531, 0.21554565, -0.46253967, -0.66342163, 0.01801895, 1.79814213, 0.48994281, -168.36653137, 146.46517944, 236.31129456, 0.22662677, -0.42617607, -0.87579352, -0.03064289, 0.00045587, 0.16209416, 0.00000000, 0.00000000, 0.00000000, 0.24906793, 0.00827158, -0.42606718, 0.86969162
424169521.686388, 0.19696045, -0.44688416, -0.74784851, -0.09406525, 2.01878450, 0.58556760, -168.36653137, 146.46517944, 236.31129456, 0.24583542, -0.42857721, -0.86941737, -0.03967392, -0.03295539, 0.19134727, 0.00000000, 0.00000000, 0.00000000, 0.25486421, 0.01831836, -0.41968682, 0.87096019
424169521.702209, 0.20738220, -0.37034607, -0.86813354, -0.12393872, 1.84500658, 0.58235450, -169.56427002, 144.92524719, 234.81353760, 0.26900145, -0.42998710, -0.86182904, -0.07024045, 0.02442376, 0.04440046, 0.00000000, 0.00000000, 0.00000000, 0.26100562, 0.03100871, -0.41164619, 0.87261787
424169521.717957, 0.20738220, -0.37034607, -0.86813354, -0.20098930, 1.50773720, 0.52470851, -169.90646362, 145.26745605, 235.47920227, 0.29097617, -0.43095601, -0.85417199, -0.08359396, 0.06060995, -0.01396156, 0.00000000, 0.00000000, 0.00000000, 0.26650923, 0.04343776, -0.40340720, 0.87427034
424169521.733775, 0.21574402, -0.34201050, -0.84175110, -0.27588991, 1.38190843, 0.49622041, -169.73536682, 145.78076172, 235.97845459, 0.30901659, -0.43112573, -0.84772599, -0.09327256, 0.08911522, 0.00597490, 0.00000000, 0.00000000, 0.00000000, 0.27058063, 0.05406591, -0.39602754, 0.87579974
424169521.749544, 0.30618286, -0.35630798, -0.68206787, -0.59059672, 1.45814275, 0.65598824, -171.27529907, 145.26745605, 235.81204224, 0.32393277, -0.43040872, -0.84250575, -0.12172328, 0.07493997, 0.08315209, 0.00000000, 0.00000000, 0.00000000, 0.27337989, 0.06332907, -0.38921615, 0.87736176
424169521.765259, 0.30822754, -0.51278687, -0.71531677, -0.68825990, 1.73461322, 0.92262233, -171.44641113, 145.78076172, 235.31278992, 0.33877531, -0.42702964, -0.83837759, 0.00961336, -0.00270363, 0.17770253, 0.00000000, 0.00000000, 0.00000000, 0.27462773, 0.07342219, -0.38165276, 0.87950552
424169521.781131, 0.16421509, -0.56417847, -0.92315674, 0.12926824, 2.26990274, 0.81090059, -172.98634338, 146.97850037, 233.81504822, 0.35447916, -0.42313918, -0.83384514, -0.03152689, -0.09361497, 0.17159845, 0.00000000, 0.00000000, 0.00000000, 0.27546679, 0.08482609, -0.37166533, 0.88248936
424169521.797919, 0.28840637, -0.63580322, -0.80334473, 0.98409688, 1.98438018, 0.69517479, -172.64413452, 146.63629150, 233.81504822, 0.37478894, -0.42306331, -0.82495493, -0.21057387, -0.14111516, -0.09820179, 0.00000000, 0.00000000, 0.00000000, 0.27915227, 0.09796189, -0.36093056, 0.88442445
424169521.812708, 0.28840637, -0.63580322, -0.80334473, 1.62358098, 0.86801448, 0.42715533, -172.13082886, 146.80738831, 233.64862061, 0.39960402, -0.44047114, -0.80392897, -0.11119767, -0.19533207, 0.00058424, 0.00000000, 0.00000000, 0.00000000, 0.29323718, 0.10976100, -0.35105748, 0.88245290
424169521.829091, 0.30555725, -0.40924072, -0.72171021, 1.57384511, 1.46097742, 0.57271093, -174.52629089, 147.83401489, 232.65013123, 0.41017365, -0.45945972, -0.78781617, -0.20875765, -0.14570387, -0.24676023, 0.00000000, 0.00000000, 0.00000000, 0.30550453, 0.11295525, -0.34598079, 0.87988942
424169521.844170, 0.19161987, -0.26591492, -0.31307983, 1.23833688, 3.37580329, 0.73968181, -174.52629089, 147.83401489, 232.65013123, 0.42026365, -0.48385474, -0.76763469, -0.07504880, 0.20182654, 0.46924910, 0.00000000, 0.00000000, 0.00000000, 0.32090141, 0.11491268, -0.34111012, 0.87604865
424169521.859728, 0.28373718, -0.06289673, -0.24705505, 0.55934239, 6.14931992, 0.15040735, -176.23731995, 147.83401489, 230.98596191, 0.44591051, -0.50491142, -0.73907256, -0.40092760, 0.23367117, 0.48499849, 0.00000000, 0.00000000, 0.00000000, 0.33790040, 0.12762064, -0.33049888, 0.87195572
424169521.876363, 0.65672302, -0.35162354, -1.36235046, 0.05202805, 5.58939136, -0.05394819, -181.19934082, 148.34732056, 232.15087891, 0.50143373, -0.51715833, -0.69362199, -0.21769653, 0.45426163, 0.44656694, 0.00000000, 0.00000000, 0.00000000, 0.35711105, 0.16018959, -0.31406997, 0.86496881
424169521.891657, 0.65672302, -0.35162354, -1.36235046, -0.97710901, 3.80549501, -0.07235889, -180.51493835, 147.66291809, 230.81954956, 0.56528038, -0.51673549, -0.64299500, 0.09144267, 0.16511194, -0.71935546, 0.00000000, 0.00000000, 0.00000000, 0.37140015, 0.20140612, -0.29655473, 0.85647697
424169521.907545, 0.95967102, -0.39031982, -1.41264343, -1.12174769, 0.65630409, -0.57105071, -182.22596741, 148.00511169, 230.15388489, 0.61024338, -0.50970238, -0.60647053, 0.21928544, 0.08010643, -0.40393594, 0.00000000, 0.00000000, 0.00000000, 0.37711204, 0.23356205, -0.28227364, 0.85062146
424169521.923897, 0.77110291, -0.90106201, -1.44363403, 0.41204854, -0.21340815, -0.36239417, -181.37045288, 148.17622375, 230.32029724, 0.62920713, -0.49563581, -0.59870154, 0.21483280, -0.06535356, -0.68677515, 0.00000000, 0.00000000, 0.00000000, 0.37274363, 0.24841783, -0.27761925, 0.84986959
424169521.938997, 1.02374268, -0.69728088, -1.34757996, 2.29237050, 0.03122769, 0.47486639, -180.34382629, 149.20285034, 229.32180786, 0.63217229, -0.48835996, -0.60155028, 0.29623348, -0.35957095, -1.04433894, 0.00000000, 0.00000000, 0.00000000, 0.36987901, 0.24982869, -0.28063998, 0.84971545
424169521.954121, 0.91786194, -0.71679688, -0.60743713, 3.61245631, 1.70934915, 1.58975963, -182.56817627, 150.05836487, 229.48822021, 0.62935227, -0.50613219, -0.58969986, 0.39439040, -0.19114870, -0.75788009, 0.00000000, 0.00000000, 0.00000000, 0.38126822, 0.24450892, -0.28320290, 0.84536741
424169521.971344, 0.91786194, -0.71679688, -0.60743713, 3.51261600, 2.02274622, 1.97570307, -181.88375854, 151.76940918, 227.49122620, 0.62941259, -0.54824841, -0.55069363, 0.28844935, -0.16854845, -0.05674353, 0.00000000, 0.00000000, 0.00000000, 0.40813030, 0.24100385, -0.27765545, 0.83561609
424169521.986655, 0.61410522, -0.42866516, -0.46722412, 2.64751422, 1.58473451, 1.34599624, -180.85713196, 151.76940918, 226.49272156, 0.62923008, -0.59665710, -0.49806607, -0.01512488, 0.16799192, 0.03084194, 0.00000000, 0.00000000, 0.00000000, 0.43936115, 0.24068392, -0.26468323, 0.82399989
424169522.001825, 0.08255005, -0.40852356, -0.33505249, 1.52189962, 0.85413542, 0.16631707, -180.85713196, 151.76940918, 226.49272156, 0.62610292, -0.63551384, -0.45179340, -0.31018499, 0.26574761, 0.16709490, 0.00000000, 0.00000000, 0.00000000, 0.46540934, 0.23978626, -0.25356621, 0.81338851
424169522.018261, 0.29742432, -0.50173950, -0.33683777, 1.58692976, 1.12378341, -0.34642879, -181.54154968, 152.79603577, 226.49272156, 0.62785339, -0.65434992, -0.42145732, -0.54116821, 0.21312679, 0.17600442, 0.00000000, 0.00000000, 0.00000000, 0.48085860, 0.24092811, -0.24934618, 0.80532921
424169522.033591, 0.63914490, -1.03878784, -0.34744263, 1.68408773, 2.52942300, -0.40807351, -183.76591492, 154.33596802, 226.65913391, 0.63625526, -0.66071266, -0.39829385, -0.33883098, 0.15897314, 0.06145610, 0.00000000, 0.00000000, 0.00000000, 0.49081760, 0.24484924, -0.25013923, 0.79785794
424169522.049740, 0.63914490, -1.03878784, -0.34744263, 2.25788922, 2.20002619, -0.12359784, -183.93701172, 154.84928894, 224.82855225, 0.65374482, -0.66596597, -0.35931465, -0.01459990, -0.37282184, 0.01187203, 0.00000000, 0.00000000, 0.00000000, 0.50412570, 0.25729351, -0.24695558, 0.78655596
424169522.065509, 0.78427124, -1.07929993, -0.36735535, 2.15254762, 1.51647610, 0.23982352, -183.76591492, 156.38922119, 223.66365051, 0.66834372, -0.67531902, -0.31186682, 0.11592752, -0.40398094, -0.05548853, 0.00000000, 0.00000000, 0.00000000, 0.52163615, 0.26825793, -0.24337232, 0.77246574
424169522.081196, 0.80073547, -0.64665222, -0.23460388, 2.22324683, 1.65432877, 0.51288355, -185.81916809, 154.67817688, 223.33081055, 0.67477405, -0.68692988, -0.26982829, 0.15596023, -0.15804079, -0.03672078, 0.00000000, 0.00000000, 0.00000000, 0.53857508, 0.27390279, -0.24003183, 0.75980186
424169522.097545, 0.38990784, -0.50547791, -0.20483398, 2.31885777, 1.73164194, 0.45232273, -184.96363831, 155.53370667, 222.83155823, 0.67594123, -0.70046324, -0.22902994, -0.07974984, 0.13578121, -0.00294943, 0.00000000, 0.00000000, 0.00000000, 0.55552506, 0.27726690, -0.23514147, 0.74781245
424169522.112734, 0.21894836, -0.45860291, -0.03486633, 2.46745417, 2.92201422, 0.16531945, -186.50357056, 157.07363892, 220.00248718, 0.67566139, -0.71347034, -0.18558492, -0.28575355, 0.20799242, -0.01924906, 0.00000000, 0.00000000, 0.00000000, 0.57316532, 0.28051570, -0.22976742, 0.73484651
424169522.128514, 0.21894836, -0.45860291, -0.03486633, 2.63998706, 3.75331623, -0.21821116, -185.99026489, 154.84928894, 218.50473022, 0.67856699, -0.72255641, -0.13213263, -0.45961866, 0.26395351, 0.09726629, 0.00000000, 0.00000000, 0.00000000, 0.59192193, 0.28907112, -0.22214051, 0.71883232
424169522.145614, 0.18659973, -0.50703430, -0.17289734, 3.09576817, 4.39209326, -0.71838877, -186.67468262, 155.87591553, 216.50773621, 0.68473208, -0.72595596, -0.06426497, -0.49813232, 0.21892165, -0.10863237, 0.00000000, 0.00000000, 0.00000000, 0.61232750, 0.30483200, -0.21158305, 0.69811539
424169522.160072, 0.24617004, -0.42326355, -0.15609741, 3.44850093, 3.51808454, -1.31356852, -186.67468262, 155.87591553, 216.50773621, 0.69263279, -0.72115374, 0.01403952, -0.59425938, 0.22953081, -0.26147604, 0.00000000, 0.00000000, 0.00000000, 0.63337226, 0.32536033, -0.20123434, 0.67267004
424169522.176088, -0.02432251, -0.70727539, 0.17156982, 3.83989240, 4.30647742, -2.21927872, -187.70130920, 155.53370667, 214.17790222, 0.70148665, -0.70628268, 0.09529562, -0.30112651, 0.37533483, -0.32123250, 0.00000000, 0.00000000, 0.00000000, 0.65387836, 0.34654134, -0.19531784, 0.64358615
424169522.192143, 0.22749329, -0.47329712, 0.50733948, 4.47988916, 7.09059929, -2.37677726, -188.38572693, 156.21812439, 209.18540955, 0.71394992, -0.67757875, 0.17652902, -0.73827243, -0.02969663, -0.00495920, 0.00000000, 0.00000000, 0.00000000, 0.67257771, 0.36865124, -0.19582736, 0.61105412
424169522.208022, 0.22749329, -0.47329712, 0.50733948, 5.28849251, 6.65487737, -2.09046268, -188.21461487, 153.30935669, 206.35633850, 0.71489811, -0.63415945, 0.29455486, -0.48740479, 0.16086231, 0.21278463, 0.00000000, 0.00000000, 0.00000000, 0.69503018, 0.40522891, -0.18531159, 0.56425366
424169522.223660, 0.48037720, -0.26354980, 0.64913940, 4.82748601, 6.89566229, -2.06681248, -187.01689148, 153.13824463, 203.19442749, 0.69734710, -0.58181465, 0.41856742, -0.21696992, 0.31826487, 0.23057200, 0.00000000, 0.00000000, 0.00000000, 0.71870491, 0.43902955, -0.17324025, 0.51059192
424169522.239521, 0.38668823, -0.35250854, 1.23731995, 4.20640036, 8.22769451, -2.01846518, -186.67468262, 150.74278259, 200.19892883, 0.66355848, -0.52161366, 0.53629220, -0.34930372, 0.08176379, 0.53241813, 0.00000000, 0.00000000, 0.00000000, 0.73963013, 0.47020569, -0.15981474, 0.45421706
424169522.255021, 0.47120667, -0.33784485, 0.87834167, 4.35197274, 8.51095098, -1.95169468, -183.76591492, 149.20285034, 197.03701782, 0.60703146, -0.46031216, 0.64778507, -0.14121117, 0.18858366, 0.57049191, 0.00000000, 0.00000000, 0.00000000, 0.75564976, 0.50287769, -0.13789570, 0.39634864
424169522.270795, 0.58090210, -0.38505554, 0.89228821, 3.76267591, 7.92885801, -2.03623246, -181.37045288, 146.80738831, 194.04151917, 0.52602190, -0.39526027, 0.75304067, -0.05481522, 0.05741544, 0.12530099, 0.00000000, 0.00000000, 0.00000000, 0.76843721, 0.53481267, -0.10999435, 0.33373776
424169522.286974, 0.58090210, -0.38505554, 0.89228821, 2.73848168, 4.94161684, -1.65219451, -178.46168518, 146.29408264, 193.20944214, 0.43341255, -0.32951683, 0.83879215, 0.14748955, -0.05553873, 0.05349608, 0.00000000, 0.00000000, 0.00000000, 0.77556860, 0.56381683, -0.08176783, 0.27187858
424169522.302803, 0.79885864, -0.35371399, 0.72567749, 1.48688731, 2.24650208, -0.84781866, -177.77726746, 143.89862061, 192.21093750, 0.35893205, -0.27589017, 0.89165711, 0.43992659, -0.07782381, -0.16597961, 0.00000000, 0.00000000, 0.00000000, 0.77688101, 0.58505081, -0.06208193, 0.22431514
424169522.318630, 0.83181763, -0.65666199, 0.88262939, 0.98190163, 1.22714761, 0.17272890, -177.77726746, 143.89862061, 192.21093750, 0.32032329, -0.24294382, 0.91562617, 0.49594563, -0.27782339, -0.03357662, 0.00000000, 0.00000000, 0.00000000, 0.77615429, 0.59615233, -0.05418007, 0.19811974
424169522.334039, 0.50975037, -0.46414185, 1.18997192, 0.79072262, 2.88486179, 0.60809795, -176.92173767, 143.72750854, 191.71170044, 0.30068690, -0.22614481, 0.92652357, 0.51524633, -0.38788411, 0.09637988, 0.00000000, 0.00000000, 0.00000000, 0.77767387, 0.59873628, -0.05109475, 0.18473642
424169522.349682, 0.04649353, -0.16549683, 0.96138000, 0.50237152, 3.55496452, 0.36604244, -175.89511108, 143.38529968, 191.04602051, 0.26593566, -0.21685296, 0.93928325, -0.06650329, -0.11269111, 0.21466267, 0.00000000, 0.00000000, 0.00000000, 0.78221839, 0.59814380, -0.04038116, 0.16949259
424169522.365952, 0.04649353, -0.16549683, 0.96138000, 0.63328186, 2.45654426, -0.09436965, -174.52629089, 144.41192627, 189.04902649, 0.21108043, -0.20992871, 0.95465964, -0.16458690, 0.04443189, 0.00672039, 0.00000000, 0.00000000, 0.00000000, 0.78615627, 0.59940649, -0.02051998, 0.14916139
424169522.381634, -0.15203857, 0.05700684, 0.70640564, 0.44137527, 1.45610516, -0.66359183, -176.75064087, 144.24082947, 189.88111877, 0.16773911, -0.20123845, 0.96507341, -0.31977770, 0.25824529, -0.25866777, 0.00000000, 0.00000000, 0.00000000, 0.78751910, 0.60195546, -0.00557799, 0.13203099
424169522.397295, -0.13827515, -0.09140015, 0.80401611, 0.74036038, 1.32427017, -0.95829857, -175.72401428, 144.58303833, 190.54678345, 0.14269672, -0.19254042, 0.97085828, -0.37345538, 0.19499709, -0.19951126, 0.00000000, 0.00000000, 0.00000000, 0.78586901, 0.60649736, 0.00235142, 0.12068687
424169522.413357, 0.27297974, -0.24124146, 0.99090576, 0.68778878, 1.33197815, -0.69917273, -174.86849976, 145.78076172, 189.71469116, 0.12409780, -0.18153030, 0.97552371, -0.05979726, -0.01086778, -0.18626283, 0.00000000, 0.00000000, 0.00000000, 0.78208942, 0.61326829, 0.00722401, 0.11039005
424169522.428877, 0.25942993, -0.27658081, 1.03591919, 0.66521370, 1.25380772, -0.33176329, -174.52629089, 144.06971741, 189.71469116, 0.10660457, -0.16871618, 0.97988284, 0.20639898, -0.10142542, 0.11293641, 0.00000000, 0.00000000, 0.00000000, 0.77871881, 0.61930478, 0.01084496, 0.09970448
424169522.444734, 0.11322021, -0.13905334, 1.02339172, 0.82825961, 1.13671572, -0.05501318, -173.15745544, 141.67427063, 187.71769714, 0.08662295, -0.15784442, 0.98365724, 0.17280698, -0.11873638, 0.05226193, 0.00000000, 0.00000000, 0.00000000, 0.77694244, 0.62304821, 0.01564970, 0.08903066
424169522.460714, 0.11322021, -0.13905334, 1.02339172, 0.93002619, 1.16516520, -0.08373698, -173.15745544, 141.67427063, 187.71769714, 0.06984223, -0.14619935, 0.98678660, 0.04337799, 0.00714600, 0.03660511, 0.00000000, 0.00000000, 0.00000000, 0.77667756, 0.62463211, 0.01866124, 0.07911038
424169522.476094, -0.12849426, -0.00079346, 0.97874451, 0.77631226, 0.21008373, -0.26423085, -172.13082886, 142.35868835, 188.38336182, 0.05028179, -0.13181877, 0.98999774, -0.09770610, 0.07253838, 0.04970561, 0.00000000, 0.00000000, 0.00000000, 0.77685565, 0.62569495, 0.02181744, 0.06726903
424169522.492475, -0.21028137, -0.01138306, 1.08201599, 0.48811349, -0.40584578, -0.45908769, -170.93309021, 140.81874084, 188.54977417, 0.04247029, -0.11876620, 0.99201351, -0.22736104, 0.12573947, 0.00583497, 0.00000000, 0.00000000, 0.00000000, 0.77630961, 0.62717633, 0.02084185, 0.05965608
424169522.508079, -0.04570007, -0.01127625, 1.08055115, 0.47542885, -0.62813451, -0.55371433, -170.24867249, 141.50315857, 187.88410950, 0.04651773, -0.10937070, 0.99291193, -0.17200601, 0.10270261, 0.10512576, 0.00000000, 0.00000000, 0.00000000, 0.77471195, 0.62950566, 0.01646416, 0.05720973
424169522.524010, 0.09609985, -0.04705811, 1.05920410, 0.64302424, -0.45880220, -0.58172653, -172.47303772, 141.67427063, 188.71620178, 0.05689251, -0.10190368, 0.99316609, -0.10259259, 0.09062744, 0.08738506, 0.00000000, 0.00000000, 0.00000000, 0.77242539, 0.63240973, 0.01028497, 0.05754281
424169522.539745, 0.09609985, -0.04705811, 1.05920410, 0.97280774, 0.09343008, -0.45849594, -172.30192566, 141.50315857, 189.88111877, 0.06541734, -0.09258398, 0.99355364, 0.03068251, 0.04552587, 0.06565049, 0.00000000, 0.00000000, 0.00000000, 0.76989922, 0.63563512, 0.00425615, 0.05661342
424169522.555321, 0.37582397, -0.21264648, 1.12388611, 0.39434119, 0.53566050, -0.23833960, -171.61750793, 141.84536743, 187.55128479, 0.06802205, -0.07873990, 0.99457181, 0.21878214, -0.02857516, 0.21310034, 0.00000000, 0.00000000, 0.00000000, 0.76768829, 0.63870226, -0.00096681, 0.05208814
424169522.571411, 0.13327026, 0.01086426, 1.10963440, 0.31392651, 0.43322307, -0.26416667, -172.64413452, 140.81874084, 188.88261414, 0.06270204, -0.06865937, 0.99566782, 0.25089660, -0.07085174, 0.42309442, 0.00000000, 0.00000000, 0.00000000, 0.76660910, 0.64042515, -0.00205283, 0.04649614
424169522.586995, 0.04109192, 0.03771973, 1.27021790, -0.14391323, 0.49748275, -0.28183861, -172.64413452, 140.47653198, 187.88410950, 0.05440000, -0.06178348, 0.99660593, 0.01539371, 0.08381718, 0.31452075, 0.00000000, 0.00000000, 0.00000000, 0.76555746, 0.64204732, -0.00099088, 0.04118298
424169522.602749, 0.15722656, -0.05908203, 1.10343933, 0.01592011, 0.79962477, -0.16804866, -170.07757568, 141.33206177, 187.38487244, 0.04939717, -0.06374867, 0.99674273, -0.00830526, 0.10146840, 0.27347520, 0.00000000, 0.00000000, 0.00000000, 0.76414623, 0.64377938, 0.00164940, 0.04032277
424169522.619075, 0.15722656, -0.05908203, 1.10343933, -0.18187180, 0.10006695, -0.02350506, -170.07757568, 141.33206177, 187.38487244, 0.03613846, -0.06355938, 0.99732351, 0.12108810, 0.00447735, 0.10611580, 0.00000000, 0.00000000, 0.00000000, 0.76315529, 0.64517887, 0.00672295, 0.03595885
424169522.634329, 0.00856018, 0.15553284, 1.15774536, -0.48846289, 0.31551002, -0.18837897, -170.93309021, 140.13432312, 187.88410950, 0.03173997, -0.06526377, 0.99736315, -0.02317979, 0.22079660, 0.16038223, 0.00000000, 0.00000000, 0.00000000, 0.76284360, 0.64556270, 0.00897144, 0.03518448
424169522.650208, -0.22700500, 0.21533203, 1.19506836, -0.82163660, 0.08644648, -0.53204180, -170.59088135, 140.47653198, 188.54977417, 0.02848000, -0.07154410, 0.99703074, -0.28092140, 0.35070363, 0.22245166, 0.00000000, 0.00000000, 0.00000000, 0.76226572, 0.64611636, 0.01227647, 0.03652272
424169522.665869, 0.10964966, -0.06246948, 1.10868835, -0.69441925, 0.08070523, -0.59365989, -170.07757568, 140.98985291, 189.38186646, 0.02555313, -0.08270217, 0.99624664, -0.10003128, 0.19970657, 0.15742461, 0.00000000, 0.00000000, 0.00000000, 0.75994491, 0.64854226, 0.01714061, 0.03978535
424169522.681556, 0.21760559, -0.14237976, 0.98080444, 0.01725542, -0.13389389, -0.50136111, -170.93309021, 140.47653198, 189.54827881, 0.02564172, -0.09543786, 0.99510509, 0.08400793, 0.03296838, 0.11358327, 0.00000000, 0.00000000, 0.00000000, 0.75665923, 0.65193508, 0.02146115, 0.04457443
424169522.697496, 0.21760559, -0.14237976, 0.98080444, -0.24520683, 0.17032353, -0.42569591, -172.13082886, 142.01647949, 189.38186646, 0.02685403, -0.09800887, 0.99482316, 0.19075157, -0.04437089, -0.01401872, 0.00000000, 0.00000000, 0.00000000, 0.75396010, 0.65494713, 0.02202890, 0.04586008
424169522.713450, 0.27308655, 0.09196472, 1.18139648, 0.22723928, 0.24233408, -0.25312787, -172.30192566, 141.16094971, 190.54678345, 0.02834036, -0.10058494, 0.99452478, 0.24474619, 0.19254966, 0.18687172, 0.00000000, 0.00000000, 0.00000000, 0.75163749, 0.65749789, 0.02247789, 0.04724792
424169522.728926, 0.29631042, 0.05776978, 1.03363037, 0.00785766, -0.16091325, 0.03463920, -171.44641113, 140.98985291, 189.71469116, 0.02331480, -0.09961097, 0.99475330, 0.25372377, 0.20131080, -0.01758042, 0.00000000, 0.00000000, 0.00000000, 0.75007581, 0.65936554, 0.02415946, 0.04516286
424169522.744569, 0.01564026, -0.02565002, 1.09756470, 0.19644142, 1.17849619, 0.10436183, -170.41978455, 140.98985291, 188.38336182, 0.02429733, -0.09753179, 0.99493575, 0.19140092, 0.07885503, 0.08799575, 0.00000000, 0.00000000, 0.00000000, 0.74990514, 0.65962881, 0.02311557, 0.04469658
424169522.761603, 0.11700439, -0.11410522, 0.67695618, 0.72389219, 0.36105087, -0.05625049, -170.07757568, 140.64764404, 188.38336182, 0.01378113, -0.09638160, 0.99524903, 0.00185913, 0.07073158, 0.10231565, 0.00000000, 0.00000000, 0.00000000, 0.75056043, 0.65900194, 0.02664935, 0.04080794
424169522.776258, 0.11700439, -0.11410522, 0.67695618, 1.08029585, 0.57642870, -0.02100142, -170.07757568, 140.64764404, 188.38336182, -0.00028626, -0.08791366, 0.99612808, 0.11729065, -0.02619156, -0.31917188, 0.00000000, 0.00000000, 0.00000000, 0.75054526, 0.65935260, 0.02914690, 0.03296103
424169522.792415, -0.05090332, 0.03880310, 1.18536377, 1.57561478, 0.48825650, -0.06269640, -169.56427002, 139.79211426, 188.21694946, -0.00273426, -0.07313363, 0.99731839, -0.04816906, 0.11193673, 0.18804537, 0.00000000, 0.00000000, 0.00000000, 0.75061107, 0.65972890, 0.02518413, 0.02658116
424169522.808210, 0.25325012, 0.15913391, 0.93133545, 1.40831714, -0.14372974, 0.08794930, -169.90646362, 139.44990540, 188.88261414, -0.01756060, -0.05062570, 0.99856329, 0.09052813, 0.17321482, -0.10090400, 0.00000000, 0.00000000, 0.00000000, 0.75045311, 0.66038003, 0.02332206, 0.01320726
424169522.823824, 0.07057190, 0.25489807, 1.37467957, 1.23570062, 0.92973910, 0.24839197, -168.53764343, 138.76548767, 187.88410950, -0.01374864, -0.02655845, 0.99955273, 0.27757311, 0.28373009, 0.40872669, 0.00000000, 0.00000000, 0.00000000, 0.75077076, 0.66039354, 0.01393367, 0.00543111
424169522.840231, -0.15782166, 0.23080444, 1.17031860, 0.69528958, 0.38106533, 0.13698954, -170.41978455, 139.96322632, 188.05053711, -0.02461245, -0.00655119, 0.99967563, 0.09518435, 0.26144925, 0.37500396, 0.00000000, 0.00000000, 0.00000000, 0.75194132, 0.65910701, 0.01141438, -0.00564898
424169522.855530, -0.15782166, 0.23080444, 1.17031860, 0.49812777, 0.75265193, 0.02591176, -169.56427002, 138.76548767, 189.54827881, -0.03214369, 0.00738029, 0.99945599, -0.12567797, 0.22342415, 0.17086260, 0.00000000, 0.00000000, 0.00000000, 0.75283081, 0.65800742, 0.00967387, -0.01335708
424169522.871379, -0.14038086, 0.12765503, 0.91217041, 0.55931949, 0.43522870, -0.09862911, -170.76199341, 139.27880859, 190.71319580, -0.04453007, 0.01608572, 0.99887854, -0.09585079, 0.11156931, -0.08670812, 0.00000000, 0.00000000, 0.00000000, 0.75308737, 0.65749425, 0.01148582, -0.02070772
424169522.887489, -0.10171509, 0.08447266, 0.91783142, 0.79447608, 0.62854037, -0.15346919, -169.22206116, 139.44990540, 188.88261414, -0.05153028, 0.02425609, 0.99837685, -0.06243762, 0.07430042, -0.11132237, 0.00000000, 0.00000000, 0.00000000, 0.75277805, 0.65765767, 0.01142860, -0.02609555
424169522.902675, 0.03170776, 0.06842041, 0.90393066, 0.76613978, 0.48653663, -0.11307196, -168.87985229, 135.68562317, 189.88111877, -0.06098847, 0.03501827, 0.99752402, 0.03292756, 0.03527897, -0.17837116, 0.00000000, 0.00000000, 0.00000000, 0.75185096, 0.65839360, 0.01141335, -0.03328267
424169522.919250, 0.27261353, 0.18333435, 0.69567871, 1.56688840, -0.45637606, 0.06808957, -169.22206116, 136.71224976, 189.88111877, -0.07059107, 0.04742080, 0.99637753, 0.19926845, 0.08098191, -0.21389157, 0.00000000, 0.00000000, 0.00000000, 0.75112096, 0.65879137, 0.01091077, -0.04113628
424169522.934684, 0.27261353, 0.18333435, 0.69567871, -0.95049098, -1.22548154, -0.06296911, -169.22206116, 136.71224976, 189.88111877, -0.06714552, 0.06699304, 0.99549156, 0.33975905, 0.11634132, -0.29981282, 0.00000000, 0.00000000, 0.00000000, 0.75067183, 0.65896705, 0.00313609, -0.04737503
424169522.950359, -0.08129883, -0.02636719, 1.72816467, 0.22467759, 1.31587349, 0.07086938, -168.36653137, 136.88334656, 189.04902649, -0.04300055, 0.05790502, 0.99739558, -0.03829828, -0.08427221, 0.73076910, 0.00000000, 0.00000000, 0.00000000, 0.75072755, 0.65962561, -0.00296082, -0.03596441
424169522.966141, 0.00276184, -0.05442810, 1.01847839, -0.88248184, -1.16507439, -0.04961229, -169.05094910, 136.88334656, 189.38186646, -0.05316253, 0.05784098, 0.99690932, 0.01922698, 0.07367451, 1.01143730, 0.00000000, 0.00000000, 0.00000000, 0.75107538, 0.65904508, 0.00090603, -0.03930045
424169522.982212, -0.01336670, 0.13452148, 0.69223022, -0.16420199, -0.34506285, -0.07381643, -168.02432251, 137.56776428, 191.37886047, -0.05130489, 0.05150941, 0.99735379, 0.10020930, -0.13071778, -0.35543180, 0.00000000, 0.00000000, 0.00000000, 0.75129959, 0.65895813, 0.00230445, -0.03630142
424169522.997876, 0.27912903, 0.05187988, 0.81071472, -0.25393268, 0.01298824, -0.01174454, -170.93309021, 138.42327881, 187.88410950, -0.03578891, 0.04078037, 0.99852699, 0.09175815, 0.14449185, -0.34749547, 0.00000000, 0.00000000, 0.00000000, 0.75118771, 0.65953052, -0.00000586, -0.02713878
424169523.014470, 0.09797668, 0.09765625, 0.48226929, -0.08742066, -0.48744956, 0.18880827, -169.39315796, 138.59439087, 189.71469116, -0.03853513, 0.04135085, 0.99840128, 0.31766415, 0.01052904, -0.18768658, 0.00000000, 0.00000000, 0.00000000, 0.75101756, 0.65967664, 0.00083185, -0.02826056
424169523.029136, 0.09797668, 0.09765625, 0.48226929, -0.27763934, 0.14974981, -0.00156141, -170.93309021, 139.44990540, 191.21244812, -0.03173936, 0.03510993, 0.99887931, 0.12971604, 0.06254632, -0.51661003, 0.00000000, 0.00000000, 0.00000000, 0.75180200, 0.65896390, 0.00036297, -0.02366867
424169523.044949, -0.20365906, -0.22222900, 1.30027771, -0.11494709, 0.19754477, 0.13361665, -169.73536682, 138.25218201, 190.38035583, -0.02633985, 0.02792547, 0.99926293, -0.42545763, -0.28175542, 1.10432899, 0.00000000, 0.00000000, 0.00000000, 0.75221407, 0.65863909, 0.00071046, -0.01918426
424169523.061036, 0.08566284, -0.12129211, 0.75199890, 0.00243519, -0.38991794, 0.18439115, -168.70874023, 137.90997314, 190.71319580, -0.03003230, 0.02927328, 0.99912018, 0.25891414, -0.26784444, -0.00343842, 0.00000000, 0.00000000, 0.00000000, 0.75261451, 0.65812725, 0.00166934, -0.02090748
424169523.076580, -0.20010376, 0.01338196, 1.33537292, 0.00243519, -0.38991794, 0.18439115, -168.70874023, 137.90997314, 190.71319580, -0.02792701, 0.02533345, 0.99928892, -0.16608849, 0.03765483, -0.14476620, 0.00000000, 0.00000000, 0.00000000, 0.75377455, 0.65686252, 0.00220582, -0.01872662
424169523.092660, -0.08340454, -0.09155273, 0.98072815, -0.02193300, 0.06212436, -0.16795492, -169.22206116, 137.39665222, 189.21545410, -0.02849108, 0.02577240, 0.99926174, -0.17161268, -0.01239044, 0.33611119, 0.00000000, 0.00000000, 0.00000000, 0.75416400, 0.65640501, 0.00228575, -0.01907619
424169523.108868, -0.08340454, -0.09155273, 0.98072815, -0.00437344, -0.01377866, -0.15740001, -168.19543457, 137.73886108, 189.21545410, -0.02981212, 0.02539567, 0.99923283, -0.05359242, -0.11694840, -0.01850471, 0.00000000, 0.00000000, 0.00000000, 0.75378376, 0.65683063, 0.00289673, -0.01936961
424169523.124452, 0.01394653, 0.11816406, 0.98362732, 0.00001891, -0.06879744, 0.01165346, -169.39315796, 138.59439087, 189.04902649, -0.03005458, 0.02512197, 0.99923253, 0.10010768, -0.11170034, -0.01737521, 0.00000000, 0.00000000, 0.00000000, 0.75291595, 0.65782507, 0.00305253, -0.01935012
424169523.140695, -0.07589722, 0.21771240, 0.98771667, -0.00333188, -0.05108369, 0.04217542, -171.44641113, 139.27880859, 190.38035583, -0.02849014, 0.02513744, 0.99927795, -0.00964158, 0.22165821, 0.03735840, 0.00000000, 0.00000000, 0.00000000, 0.75299280, 0.65775438, 0.00246019, -0.01884071
424169523.155831, -0.04837036, 0.11204529, 1.01913452, -0.03932370, -0.01812441, 0.05515273, -171.10420227, 139.96322632, 188.71620178, -0.02720896, 0.02469712, 0.99932462, -0.07214101, 0.16779251, 0.00227754, 0.00000000, 0.00000000, 0.00000000, 0.75321437, 0.65751839, 0.00212840, -0.01825247
424169523.172281, -0.01609802, 0.03472900, 1.02929688, -0.01533635, 0.02056839, 0.10493201, -170.93309021, 138.76548767, 191.87811279, -0.02662733, 0.02432589, 0.99934942, -0.02174303, 0.08771940, 0.01978512, 0.00000000, 0.00000000, 0.00000000, 0.75355525, 0.65713711, 0.00204052, -0.01792018
424169523.187463, -0.01609802, 0.03472900, 1.02929688, -0.20103111, 0.04040628, 0.12893082, -170.41978455, 139.96322632, 189.38186646, -0.02669607, 0.02411158, 0.99935275, 0.01059805, 0.01061743, 0.02994411, 0.00000000, 0.00000000, 0.00000000, 0.75412554, 0.65648385, 0.00215236, -0.01786013
424169523.203132, -0.08952332, -0.00074768, 1.00448608, 0.00040773, 0.01248250, -0.05798154, -169.05094910, 139.27880859, 189.04902649, -0.02712403, 0.02200436, 0.99938989, 0.05516968, 0.02143741, 0.06445291, 0.00000000, 0.00000000, 0.00000000, 0.75500246, 0.65548929, 0.00302847, -0.01720168
424169523.219179, -0.05323792, 0.05621338, 0.99897766, -0.08226132, 0.02939331, -0.22965264, -169.22206116, 137.39665222, 188.54977417, -0.02741771, 0.02061161, 0.99941152, -0.04626698, -0.01400456, -0.09435173, 0.00000000, 0.00000000, 0.00000000, 0.75507561, 0.65541330, 0.00359772, -0.01677156
424169523.234578, -0.09214783, 0.07583618, 1.07904053, -0.30503181, 0.04120310, -0.40636243, -169.22206116, 137.39665222, 188.54977417, -0.02776080, 0.02005147, 0.99941349, -0.07451887, 0.06657267, 0.06728270, 0.00000000, 0.00000000, 0.00000000, 0.75432998, 0.65627206, 0.00389193, -0.01667692
424169523.250404, 0.05667114, -0.08177185, 0.82667542, -0.01133308, 0.03923209, -0.27530321, -169.22206116, 137.39665222, 188.54977417, -0.02858987, 0.01615065, 0.99946076, -0.06355795, 0.05968553, 0.07957979, 0.00000000, 0.00000000, 0.00000000, 0.75260166, 0.65827131, 0.00544411, -0.01549163
424169523.266357, 0.05667114, -0.08177185, 0.82667542, -0.01836143, 0.02809422, -0.00321444, -171.10420227, 138.25218201, 189.38186646, -0.02896501, 0.01396156, 0.99948293, 0.08563615, -0.09573341, -0.17280750, 0.00000000, 0.00000000, 0.00000000, 0.75092627, 0.66019027, 0.00626827, -0.01480709
424169523.283142, 0.02200317, 0.00971985, 0.95346069, 0.04032319, 0.02203313, 0.01242711, -170.93309021, 138.08106995, 190.21394348, -0.02957878, 0.01352435, 0.99947095, 0.05158195, -0.00380450, -0.04601026, 0.00000000, 0.00000000, 0.00000000, 0.75054327, 0.66062113, 0.00663460, -0.01484942
424169523.297786, -0.01588440, 0.01098633, 1.03459167, 0.05539695, 0.00433429, -0.00516920, -170.07757568, 139.96322632, 187.71769714, -0.03012541, 0.01407100, 0.99944711, -0.00185701, -0.00206234, -0.01592657, 0.00000000, 0.00000000, 0.00000000, 0.75070290, 0.66043069, 0.00666300, -0.01523366
424169523.314569, -0.02317810, 0.00561523, 1.00489807, 0.06804270, -0.01922403, -0.02870808, -169.90646362, 137.73886108, 190.87960815, -0.03028656, 0.01447781, 0.99943638, 0.01237274, -0.01075467, -0.04504492, 0.00000000, 0.00000000, 0.00000000, 0.75081963, 0.66029394, 0.00659192, -0.01543848
424169523.329386, -0.01847839, -0.00263977, 0.95684814, 0.13735386, -0.02540682, -0.02343236, -170.93309021, 139.44990540, 190.87960815, -0.03015236, 0.01549563, 0.99942517, 0.00697426, -0.00988040, 0.00547288, 0.00000000, 0.00000000, 0.00000000, 0.75081147, 0.66029897, 0.00620528, -0.01577647
424169523.345223, -0.01847839, -0.00263977, 0.95684814, -0.04294853, 0.03401443, -0.01151950, -169.73536682, 138.59439087, 188.71620178, -0.02969734, 0.01696954, 0.99941486, 0.01121895, -0.01960931, -0.04256674, 0.00000000, 0.00000000, 0.00000000, 0.75075972, 0.66035391, 0.00554645, -0.01618014
424169523.361116, -0.01213074, 0.02836609, 1.13835144, -0.04591023, -0.00692049, -0.02736398, -170.07757568, 139.27880859, 189.38186646, -0.02987423, 0.01780790, 0.99939501, 0.01774349, 0.01055819, 0.13895641, 0.00000000, 0.00000000, 0.00000000, 0.75084604, 0.66024824, 0.00533827, -0.01655271
424169523.376785, -0.01522827, 0.01324463, 0.88352966, -0.03543496, -0.01277785, -0.02153352, -168.19543457, 137.73886108, 188.54977417, -0.03009365, 0.01581032, 0.99942201, 0.00697659, -0.00142128, -0.04989811, 0.00000000, 0.00000000, 0.00000000, 0.75088295, 0.66021649, 0.00608105, -0.01587460
424169523.393152, -0.01344299, 0.00433350, 0.90444946, 0.10251093, 0.00759587, -0.00229538, -168.19543457, 137.73886108, 188.54977417, -0.02993545, 0.01582081, 0.99942660, 0.01186904, 0.00847118, 0.08376430, 0.00000000, 0.00000000, 0.00000000, 0.75084062, 0.66026636, 0.00601713, -0.01582668
424169523.408645, -0.02296448, 0.00823975, 1.02214050, 0.04416107, -0.03889067, -0.02113884, -168.70874023, 138.59439087, 190.04753113, -0.02992513, 0.01628254, 0.99941951, 0.01648214, -0.01194905, -0.09497005, 0.00000000, 0.00000000, 0.00000000, 0.75090598, 0.66018934, 0.00586240, -0.01599610
424169523.424424, -0.02296448, 0.00823975, 1.02214050, 0.03640168, -0.01087395, -0.02773496, -170.41978455, 138.59439087, 190.38035583, -0.02840571, 0.01625242, 0.99946433, 0.00544123, -0.00801267, 0.02267616, 0.00000000, 0.00000000, 0.00000000, 0.75091154, 0.66019999, 0.00530158, -0.01548293
424169523.440608, -0.01902771, 0.01431274, 1.07609558, -0.02818636, -0.00114356, -0.02126348, -169.90646362, 139.10769653, 187.88410950, -0.02805186, 0.01708497, 0.99946046, 0.00902415, -0.00277223, 0.07663513, 0.00000000, 0.00000000, 0.00000000, 0.75087921, 0.66023529, 0.00489305, -0.01567902
424169523.456065, -0.01350403, 0.00723267, 0.91419983, 0.00119549, -0.00364400, -0.02216229, -170.93309021, 139.10769653, 188.88261414, -0.02705448, 0.01557435, 0.99951261, 0.01129216, -0.00448121, 0.00263886, 0.00000000, 0.00000000, 0.00000000, 0.75087516, 0.66025966, 0.00501694, -0.01478229
424169523.471860, -0.01286316, 0.01564026, 0.95097351, 0.06133952, 0.00900015, -0.00037391, -171.10420227, 139.62101746, 190.38035583, -0.02710848, 0.01571036, 0.99950904, 0.00608187, 0.00513315, 0.04869348, 0.00000000, 0.00000000, 0.00000000, 0.75088965, 0.66024182, 0.00499265, -0.01485109
424169523.487338, -0.01469421, 0.01739502, 1.01142883, 0.02699247, -0.01083054, -0.02899650, -169.39315796, 139.62101746, 191.04602051, -0.02716026, 0.01605345, 0.99950218, 0.01429710, -0.00041320, -0.04852867, 0.00000000, 0.00000000, 0.00000000, 0.75093974, 0.66018225, 0.00489998, -0.01499668
424169523.503377, -0.01469421, 0.01739502, 1.01142883, 0.00351111, -0.00599131, -0.02217721, -170.07757568, 138.59439087, 188.71620178, -0.02626420, 0.01692987, 0.99951166, 0.01156998, 0.00046515, 0.01191717, 0.00000000, 0.00000000, 0.00000000, 0.75095149, 0.66017247, 0.00427430, -0.01502987
424169523.519384, -0.01933289, 0.01081848, 1.03262329, -0.00455081, 0.00815300, -0.00689492, -169.05094910, 136.88334656, 188.05053711, -0.02615927, 0.01715903, 0.99951053, 0.00682638, -0.00634055, 0.03311278, 0.00000000, 0.00000000, 0.00000000, 0.75091849, 0.66020957, 0.00415848, -0.01508151
424169523.535322, -0.01930237, 0.00389099, 0.98635864, 0.00825127, -0.00367516, -0.02092552, -168.36653137, 136.19892883, 188.71620178, -0.02568598, 0.01592291, 0.99954325, 0.00833674, -0.01107062, -0.01690774, 0.00000000, 0.00000000, 0.00000000, 0.75096537, 0.66016864, 0.00438974, -0.01446062
424169523.550792, -0.01770020, 0.00779724, 0.98416138, 0.03196273, 0.01029045, -0.00647814, -168.36653137, 136.19892883, 188.71620178, -0.02571025, 0.01593291, 0.99954247, 0.00686565, -0.00937163, -0.00766013, 0.00000000, 0.00000000, 0.00000000, 0.75096005, 0.66017440, 0.00439544, -0.01447243
424169523.566630, -0.01637268, 0.01480103, 0.99792480, 0.01175439, -0.00484722, -0.01858061, -168.87985229, 137.39665222, 190.54678345, -0.02525353, 0.01610528, 0.99955136, 0.00628685, -0.00275384, 0.01013799, 0.00000000, 0.00000000, 0.00000000, 0.75097269, 0.66016338, 0.00416723, -0.01438627
424169523.583289, -0.02084351, 0.01829529, 1.00247192, -0.00250737, -0.01052162, -0.00485787, -169.22206116, 138.08106995, 190.21394348, -0.02525799, 0.01625852, 0.99954873, 0.00888531, -0.00145749, -0.00162394, 0.00000000, 0.00000000, 0.00000000, 0.75098297, 0.66015071, 0.00411855, -0.01444523
424169523.598141, -0.02084351, 0.01829529, 1.00247192, 0.00718095, 0.00695085, -0.00213719, -171.10420227, 139.27880859, 189.38186646, -0.02513524, 0.01618535, 0.99955302, 0.00429173, 0.00210994, 0.00291890, 0.00000000, 0.00000000, 0.00000000, 0.75097544, 0.66016089, 0.00409642, -0.01437726
424169523.614737, -0.01652527, 0.01043701, 0.98715210, 0.02945509, -0.00383229, -0.02768995, -171.61750793, 139.44990540, 190.54678345, -0.02448845, 0.01610849, 0.99957031, 0.01046562, 0.00087454, -0.00962587, 0.00000000, 0.00000000, 0.00000000, 0.75101639, 0.66012085, 0.00387967, -0.01413457
424169523.629863, -0.01799011, 0.01139832, 0.99668884, 0.02108425, -0.00955303, -0.01623410, -170.76199341, 140.30543518, 189.71469116, -0.02446318, 0.01632619, 0.99956739, 0.01094389, -0.00816274, -0.01294937, 0.00000000, 0.00000000, 0.00000000, 0.75097777, 0.66016369, 0.00379749, -0.01420823
424169523.645961, -0.01982117, 0.00822449, 1.00590515, 0.00483657, 0.00574604, -0.01032880, -169.39315796, 139.62101746, 190.04753113, -0.02384065, 0.01595710, 0.99958843, 0.00371431, -0.00576423, 0.00707968, 0.00000000, 0.00000000, 0.00000000, 0.75101993, 0.66012368, 0.00368633, -0.01386379
424169523.661771, -0.01971436, 0.01098633, 0.98944092, 0.00121440, -0.00247701, -0.02214259, -169.56427002, 138.76548767, 188.88261414, -0.02364062, 0.01557912, 0.99959910, 0.00381945, -0.00735463, 0.00630603, 0.00000000, 0.00000000, 0.00000000, 0.75102996, 0.66011633, 0.00373614, -0.01365571
424169523.676819, -0.01971436, 0.01098633, 0.98944092, 0.01297199, 0.00227860, 0.00250071, -169.56427002, 137.73886108, 189.88111877, -0.02336139, 0.01497673, 0.99961489, 0.00364704, -0.00399040, -0.01017398, 0.00000000, 0.00000000, 0.00000000, 0.75102794, 0.66012460, 0.00383001, -0.01333725
424169523.694287, -0.01660156, 0.01359558, 0.99218750, 0.02352770, -0.00372203, -0.01494699, -169.73536682, 137.56776428, 189.71469116, -0.02304307, 0.01502908, 0.99962151, 0.00590745, -0.00018228, -0.00969230, 0.00000000, 0.00000000, 0.00000000, 0.75105060, 0.66010131, 0.00369360, -0.01325169
424169523.709012, -0.01654053, 0.01210022, 0.99990845, 0.01647698, -0.00490155, -0.02318788, -169.73536682, 137.56776428, 189.71469116, -0.02255442, 0.01523805, 0.99962950, 0.00561717, 0.00182128, -0.00741146, 0.00000000, 0.00000000, 0.00000000, 0.75110123, 0.66004673, 0.00344205, -0.01316858
424169523.724560, -0.01670837, 0.00918579, 0.99887085, 0.00367490, 0.00692715, -0.00915728, -169.56427002, 137.73886108, 188.88261414, -0.02191828, 0.01517644, 0.99964458, 0.00786494, -0.00411382, 0.00122518, 0.00000000, 0.00000000, 0.00000000, 0.75109669, 0.66005761, 0.00322329, -0.01293545
424169523.740955, -0.02093506, 0.01052856, 0.98992920, 0.01175226, -0.00244132, -0.00690158, -169.22206116, 137.73886108, 189.54827881, -0.02173583, 0.01496387, 0.99965173, 0.00502745, -0.00577808, -0.00078091, 0.00000000, 0.00000000, 0.00000000, 0.75111283, 0.66004197, 0.00322520, -0.01279528
424169523.756296, -0.02093506, 0.01052856, 0.98992920, 0.01761335, -0.00843796, -0.02789049, -170.41978455, 139.62101746, 191.04602051, -0.02157356, 0.01460487, 0.99966061, 0.00063850, -0.00407631, -0.00973138, 0.00000000, 0.00000000, 0.00000000, 0.75115150, 0.66000130, 0.00328345, -0.01260666
424169523.773184, -0.02017212, 0.01046753, 0.99668884, 0.01072588, 0.00330125, -0.02311091, -171.78862000, 138.25218201, 191.71170044, -0.02142110, 0.01451778, 0.99966514, 0.00109639, -0.00769710, -0.00627218, 0.00000000, 0.00000000, 0.00000000, 0.75110278, 0.66005846, 0.00325398, -0.01252386
424169523.787777, -0.01863098, 0.01728821, 0.99948120, 0.00467145, -0.00957113, -0.03386422, -170.76199341, 140.64764404, 190.71319580, -0.02131656, 0.01451818, 0.99966735, -0.00038144, -0.00105993, -0.00096436, 0.00000000, 0.00000000, 0.00000000, 0.75105428, 0.66011449, 0.00321365, -0.01248973
424169523.803489, -0.01576233, 0.01895142, 0.99421692, 0.01530013, -0.00489516, -0.02319986, -170.07757568, 137.56776428, 190.38035583, -0.02100020, 0.01466178, 0.99967194, 0.00337630, 0.00065805, -0.00470736, 0.00000000, 0.00000000, 0.00000000, 0.75100325, 0.66017429, 0.00304644, -0.01243946
424169523.819381, -0.01480103, 0.01037598, 0.99314880, 0.01537629, 0.00337582, -0.00676683, -169.22206116, 138.08106995, 190.54678345, -0.02074649, 0.01486110, 0.99967432, 0.00498416, 0.00409032, -0.00545739, 0.00000000, 0.00000000, 0.00000000, 0.75097019, 0.66021279, 0.00288472, -0.01243069
424169523.835340, -0.01480103, 0.01037598, 0.99314880, 0.02818690, -0.00846646, -0.02312503, -169.22206116, 137.73886108, 191.21244812, -0.02036064, 0.01474332, 0.99968398, 0.00555962, -0.00436734, -0.00653519, 0.00000000, 0.00000000, 0.00000000, 0.75098166, 0.66020341, 0.00277888, -0.01225900
424169523.851442, -0.01629639, 0.01235962, 0.99740601, 0.01056583, -0.00481952, -0.01510066, -169.22206116, 137.73886108, 191.21244812, -0.02012245, 0.01486658, 0.99968702, 0.00507728, -0.00424646, -0.00453928, 0.00000000, 0.00000000, 0.00000000, 0.75099854, 0.66018534, 0.00264903, -0.01222658
424169523.866616, -0.02166748, 0.01222229, 0.99818420, 0.00246156, 0.00339580, -0.01504819, -168.36653137, 137.22555542, 190.04753113, -0.02000231, 0.01475907, 0.99969101, 0.00153918, -0.00287247, 0.00098040, 0.00000000, 0.00000000, 0.00000000, 0.75099822, 0.66018722, 0.00263938, -0.01214653
424169523.882821, -0.02301025, 0.01568604, 0.99548340, 0.01528415, -0.00486639, -0.01854412, -169.56427002, 139.79211426, 189.54827881, -0.02012437, 0.01447527, 0.99969268, -0.00024611, -0.00568620, -0.00402619, 0.00000000, 0.00000000, 0.00000000, 0.75101718, 0.66016630, 0.00277926, -0.01208016
424169523.898399, -0.01655579, 0.01211548, 0.99540710, 0.01995294, -0.00722622, -0.01853480, -169.90646362, 139.79211426, 190.21394348, -0.02020353, 0.01453170, 0.99969029, -0.00280672, 0.00115434, -0.00420688, 0.00000000, 0.00000000, 0.00000000, 0.75100326, 0.66018121, 0.00279011, -0.01212755
424169523.914905, -0.01655579, 0.01211548, 0.99540710, 0.01878434, -0.00723421, -0.02087492, -171.27529907, 141.16094971, 191.21244812, -0.02008612, 0.01457622, 0.99969202, 0.00353034, -0.00246075, -0.00428489, 0.00000000, 0.00000000, 0.00000000, 0.75100845, 0.66017597, 0.00273141, -0.01210549
424169523.929942, -0.01850891, 0.01287842, 0.99792480, 0.01298717, -0.00495375, -0.03486397, -169.90646362, 137.73886108, 190.54678345, -0.01980262, 0.01467270, 0.99969625, 0.00129371, -0.00179428, -0.00177143, 0.00000000, 0.00000000, 0.00000000, 0.75097470, 0.66021596, 0.00259245, -0.01204825
424169523.945335, -0.01701355, 0.01187134, 0.99716187, 0.01758778, -0.00719240, -0.01506710, -169.39315796, 138.25218201, 192.04452515, -0.01961181, 0.01472716, 0.99969918, 0.00381896, -0.00311522, -0.00378855, 0.00000000, 0.00000000, 0.00000000, 0.75093484, 0.66026242, 0.00250208, -0.01200584
424169523.961842, -0.01760864, 0.01484680, 0.99343872, 0.01644209, -0.00603978, -0.01855185, -170.07757568, 137.22555542, 191.04602051, -0.01946886, 0.01471961, 0.99970210, 0.00269945, -0.00380957, -0.00630916, 0.00000000, 0.00000000, 0.00000000, 0.75093793, 0.66026001, 0.00245093, -0.01195579
424169523.976995, -0.02142334, 0.01171875, 0.99693298, 0.02129357, 0.00568558, -0.00550262, -167.51101685, 136.71224976, 191.87811279, -0.01933256, 0.01487554, 0.99970245, 0.00172392, -0.00002874, -0.00626372, 0.00000000, 0.00000000, 0.00000000, 0.75096248, 0.66023222, 0.00234871, -0.01196926
424169523.993481, -0.02142334, 0.01171875, 0.99693298, 0.01403885, -0.01194215, -0.03147803, -170.07757568, 137.56776428, 190.38035583, -0.01951485, 0.01490934, 0.99969840, -0.00190849, -0.00319059, -0.00276541, 0.00000000, 0.00000000, 0.00000000, 0.75101105, 0.66017543, 0.00240691, -0.01204197
424169524.009111, -0.01901245, 0.01316833, 0.99592590, 0.01297971, -0.00133744, -0.01618137, -170.07757568, 137.56776428, 190.38035583, -0.01941501, 0.01497599, 0.99969935, 0.00040256, -0.00180766, -0.00377344, 0.00000000, 0.00000000, 0.00000000, 0.75099510, 0.66019393, 0.00234711, -0.01203409
424169524.024916, -0.01733398, 0.01313782, 0.99067688, 0.00827151, -0.00371085, -0.02674506, -168.70874023, 138.59439087, 191.37886047, -0.01938708, 0.01503186, 0.99969906, -0.00040357, -0.00015454, -0.00275080, 0.00000000, 0.00000000, 0.00000000, 0.75096922, 0.66022326, 0.00231771, -0.01204595
424169524.040984, -0.01683044, 0.01409912, 0.99592590, 0.01761867, -0.00604617, -0.01853960, -169.39315796, 138.93659973, 191.71170044, -0.01922454, 0.01505823, 0.99970180, 0.00265349, -0.00219507, -0.00778895, 0.00000000, 0.00000000, 0.00000000, 0.75093967, 0.66025791, 0.00224741, -0.01200228
424169524.056274, -0.01728821, 0.01239014, 0.99542236, 0.01186545, 0.00456253, -0.00678360, -169.39315796, 139.62101746, 191.71170044, -0.01913383, 0.01519635, 0.99970144, 0.00230339, -0.00109723, -0.00377554, 0.00000000, 0.00000000, 0.00000000, 0.75095235, 0.66024336, 0.00216798, -0.01202416
424169524.073949, -0.01951599, 0.01315308, 0.99768066, 0.00842677, 0.00922173, -0.01139726, -171.44641113, 140.30543518, 191.71170044, -0.01908060, 0.01515831, 0.99970305, 0.00179239, -0.00276817, -0.00428067, 0.00000000, 0.00000000, 0.00000000, 0.75098794, 0.66020348, 0.00216119, -0.01199217
424169524.088054, -0.01951599, 0.01315308, 0.99768066, 0.01646233, -0.00607574, -0.02437139, -170.41978455, 140.98985291, 192.04452515, -0.01924329, 0.01498813, 0.99970245, -0.00027270, -0.00183506, -0.00202182, 0.00000000, 0.00000000, 0.00000000, 0.75105224, 0.66013012, 0.00227964, -0.01198176
424169524.103736, -0.01788330, 0.01557922, 0.99545288, 0.01998250, -0.00847897, -0.03252172, -169.73536682, 138.25218201, 190.71319580, -0.01928923, 0.01502051, 0.99970108, -0.00098970, -0.00086035, -0.00673541, 0.00000000, 0.00000000, 0.00000000, 0.75105085, 0.66013118, 0.00228619, -0.01200909
424169524.119753, -0.01852417, 0.01289368, 0.99342346, 0.01759071, -0.00599637, -0.01039165, -168.53764343, 138.76548767, 189.54827881, -0.01910639, 0.01516093, 0.99970251, 0.00380183, -0.00354899, -0.00429540, 0.00000000, 0.00000000, 0.00000000, 0.75102716, 0.66015865, 0.00217072, -0.01200155
424169524.135362, -0.01719666, 0.00944519, 0.99613953, 0.00944650, -0.00611568, -0.03724804, -169.73536682, 138.25218201, 191.71170044, -0.01912368, 0.01526401, 0.99970061, 0.00059951, -0.00237033, -0.00627714, 0.00000000, 0.00000000, 0.00000000, 0.75106622, 0.66011350, 0.00214390, -0.01204584
424169524.151491, -0.01719666, 0.00944519, 0.99613953, 0.01414964, -0.00253267, -0.01968076, -167.85322571, 138.08106995, 190.54678345, -0.01891871, 0.01515884, 0.99970609, 0.00172206, -0.00571365, -0.00356658, 0.00000000, 0.00000000, 0.00000000, 0.75100015, 0.66019075, 0.00210043, -0.01193888
424169524.167056, -0.01750183, 0.01165771, 0.99617004, 0.01411316, -0.00606988, -0.02555969, -167.85322571, 138.08106995, 190.54678345, -0.01871606, 0.01513321, 0.99971032, 0.00121423, -0.00347550, -0.00354026, 0.00000000, 0.00000000, 0.00000000, 0.75092800, 0.66027441, 0.00203147, -0.01186256
424169524.182817, -0.02044678, 0.01147461, 0.99569702, 0.01994495, -0.00721211, -0.01620667, -169.90646362, 139.44990540, 192.21093750, -0.01857008, 0.01515851, 0.99971265, 0.00202955, -0.00353131, -0.00654858, 0.00000000, 0.00000000, 0.00000000, 0.75088784, 0.66032096, 0.00196757, -0.01182397
424169524.198690, -0.01728821, 0.01260376, 0.99717712, 0.02358043, -0.00021305, -0.01372407, -170.07757568, 138.93659973, 191.37886047, -0.01857141, 0.01530033, 0.99971044, -0.00048682, -0.00019413, -0.00201454, 0.00000000, 0.00000000, 0.00000000, 0.75090989, 0.66029507, 0.00192164, -0.01187761
424169524.214347, -0.01654053, 0.01138306, 0.99465942, 0.01064945, -0.00016458, -0.01734996, -169.56427002, 139.10769653, 192.87660217, -0.01854347, 0.01531386, 0.99971080, -0.00164391, -0.00483107, -0.00553963, 0.00000000, 0.00000000, 0.00000000, 0.75087563, 0.66033414, 0.00190606, -0.01187356
424169524.230372, -0.01654053, 0.01138306, 0.99465942, 0.01529746, -0.00609065, -0.02787531, -169.39315796, 139.27880859, 190.71319580, -0.01851649, 0.01530598, 0.99971139, 0.00197596, -0.00392293, -0.00505197, 0.00000000, 0.00000000, 0.00000000, 0.75088869, 0.66031953, 0.00189877, -0.01186166
424169524.246390, -0.01486206, 0.01306152, 0.99667358, 0.01535019, -0.00258193, -0.02665212, -170.59088135, 138.76548767, 191.87811279, -0.01845208, 0.01526959, 0.99971312, 0.00359002, -0.00220807, -0.00303956, 0.00000000, 0.00000000, 0.00000000, 0.75090028, 0.66030700, 0.00188680, -0.01182669
424169524.262027, -0.01414490, 0.01330566, 0.99415588, 0.01292405, -0.00604218, -0.02208000, -170.24867249, 137.05444336, 191.54527283, -0.01844370, 0.01533685, 0.99971229, 0.00138437, -0.00221429, -0.00355748, 0.00000000, 0.00000000, 0.00000000, 0.75086057, 0.66035183, 0.00186073, -0.01184929
424169524.277122, -0.01756287, 0.01387024, 0.99569702, 0.01640454, -0.00837431, -0.01859126, -169.05094910, 137.56776428, 191.71170044, -0.01827306, 0.01533555, 0.99971545, 0.00051183, -0.00344895, -0.00179061, 0.00000000, 0.00000000, 0.00000000, 0.75083294, 0.66038444, 0.00179658, -0.01179252
424169524.293695, -0.01918030, 0.01071167, 0.99591064, 0.01410383, -0.00485308, -0.01739231, -168.19543457, 137.05444336, 190.54678345, -0.01822305, 0.01536216, 0.99971592, -0.00002646, -0.00344505, -0.00528538, 0.00000000, 0.00000000, 0.00000000, 0.75084144, 0.66037496, 0.00176917, -0.01178597
424169524.309933, -0.01995850, 0.01194763, 0.99494934, 0.01766182, -0.00492205, -0.02550350, -168.19543457, 138.76548767, 191.87811279, -0.01816686, 0.01534725, 0.99971718, -0.00101344, -0.00463558, -0.00380653, 0.00000000, 0.00000000, 0.00000000, 0.75082542, 0.66039365, 0.00175270, -0.01176186
424169524.325199, -0.01995850, 0.01194763, 0.99494934, 0.01754624, -0.00951974, -0.01394271, -168.19543457, 138.76548767, 191.87811279, -0.01814173, 0.01539374, 0.99971694, -0.00181677, -0.00344611, -0.00476757, 0.00000000, 0.00000000, 0.00000000, 0.75080508, 0.66041668, 0.00172755, -0.01177107
424169524.342012, -0.01780701, 0.01263428, 0.99417114, 0.01764557, -0.00489356, -0.02084776, -169.90646362, 138.76548767, 191.54527283, -0.01806010, 0.01551325, 0.99971652, 0.00126017, -0.00289423, -0.00330236, 0.00000000, 0.00000000, 0.00000000, 0.75081345, 0.66040703, 0.00165759, -0.01178896
424169524.356717, -0.01647949, 0.00967407, 0.99514771, 0.01526391, -0.00843237, -0.02907879, -171.95971680, 138.76548767, 192.21093750, -0.01793774, 0.01553027, 0.99971849, 0.00142773, -0.00487964, -0.00557786, 0.00000000, 0.00000000, 0.00000000, 0.75078931, 0.66043520, 0.00160559, -0.01175499
424169524.372794, -0.01699829, 0.01115417, 0.99565125, 0.01055198, -0.00719693, -0.02212394, -170.07757568, 138.93659973, 192.37736511, -0.01780619, 0.01546606, 0.99972183, 0.00077738, -0.00333533, -0.00405533, 0.00000000, 0.00000000, 0.00000000, 0.75072893, 0.66050511, 0.00157632, -0.01168758
424169524.388691, -0.01828003, 0.01290894, 0.99243164, 0.01176931, -0.00367277, -0.01739683, -170.07757568, 139.96322632, 192.04452515, -0.01772888, 0.01553445, 0.99972212, 0.00073059, -0.00438027, -0.00407090, 0.00000000, 0.00000000, 0.00000000, 0.75073323, 0.66050034, 0.00152479, -0.01168770
424169524.403977, -0.01828003, 0.01290894, 0.99243164, 0.01650681, -0.00255264, -0.02082059, -169.56427002, 138.42327881, 192.54377747, -0.01766372, 0.01556495, 0.99972284, -0.00061630, -0.00265602, -0.00729118, 0.00000000, 0.00000000, 0.00000000, 0.75072753, 0.66050707, 0.00149015, -0.01167765
424169524.419815, -0.01948547, 0.01216125, 0.99717712, 0.01294030, -0.00607068, -0.02673574, -168.87985229, 138.42327881, 191.54527283, -0.01759230, 0.01558075, 0.99972385, -0.00087084, -0.00439606, -0.00356905, 0.00000000, 0.00000000, 0.00000000, 0.75069319, 0.66054648, 0.00145751, -0.01166006
424169524.435439, -0.01585388, 0.01333618, 0.99517822, 0.01402394, -0.01311633, -0.03266154, -167.68211365, 137.22555542, 192.04452515, -0.01757480, 0.01555084, 0.99972463, -0.00021694, -0.00313019, -0.00852893, 0.00000000, 0.00000000, 0.00000000, 0.75068117, 0.66056044, 0.00146060, -0.01164307
424169524.451887, -0.01777649, 0.01190186, 0.99394226, 0.01176372, -0.00606428, -0.02674772, -168.53764343, 138.08106995, 189.88111877, -0.01742770, 0.01554566, 0.99972725, -0.00031827, -0.00486450, -0.00506784, 0.00000000, 0.00000000, 0.00000000, 0.75063670, 0.66061197, 0.00140630, -0.01159262
424169524.467209, -0.01611328, 0.01480103, 0.99691772, 0.00241575, 0.00107565, -0.01275974, -168.53764343, 138.08106995, 189.88111877, -0.01733682, 0.01561807, 0.99972773, -0.00043967, -0.00371621, -0.00578546, 0.00000000, 0.00000000, 0.00000000, 0.75057997, 0.66067660, 0.00134727, -0.01158990
424169524.483222, -0.01611328, 0.01480103, 0.99691772, 0.01176771, -0.00607147, -0.02791179, -170.59088135, 140.13432312, 193.87510681, -0.01740209, 0.01547439, 0.99972880, 0.00128881, -0.00067336, -0.00281109, 0.00000000, 0.00000000, 0.00000000, 0.75061995, 0.66063159, 0.00141994, -0.01155745
424169524.498932, -0.01478577, 0.01013184, 0.99514771, 0.00827950, -0.00372523, -0.02907320, -169.90646362, 138.42327881, 191.87811279, -0.01722541, 0.01548722, 0.99973166, 0.00243965, -0.00535539, -0.00458397, 0.00000000, 0.00000000, 0.00000000, 0.75059210, 0.66066432, 0.00134888, -0.01150394
424169524.514709, -0.01754761, 0.01289368, 0.99218750, 0.01528015, -0.00485947, -0.01738006, -170.41978455, 139.62101746, 192.04452515, -0.01716760, 0.01548432, 0.99973273, -0.00160071, -0.00306366, -0.00479864, 0.00000000, 0.00000000, 0.00000000, 0.75052741, 0.66073820, 0.00132701, -0.01148388
424169524.530360, -0.01710510, 0.01434326, 0.99517822, 0.01649269, -0.00012517, -0.00564963, -169.39315796, 139.62101746, 193.37585449, -0.01717376, 0.01551282, 0.99973220, -0.00135041, -0.00261915, -0.00530163, 0.00000000, 0.00000000, 0.00000000, 0.75054183, 0.66072161, 0.00132016, -0.01149659
424169524.545725, -0.01722717, 0.01066589, 0.99591064, 0.00240776, 0.00108977, -0.01043187, -169.39315796, 137.90997314, 192.71018982, -0.01723826, 0.01556079, 0.99973029, 0.00013316, -0.00121753, -0.00455209, 0.00000000, 0.00000000, 0.00000000, 0.75055903, 0.66070137, 0.00132883, -0.01153587
424169524.562107, -0.01722717, 0.01066589, 0.99591064, 0.01407561, -0.00840440, -0.02559910, -169.39315796, 137.22555542, 192.37736511, -0.01724334, 0.01545181, 0.99973190, 0.00001616, -0.00478592, -0.00382127, 0.00000000, 0.00000000, 0.00000000, 0.75056339, 0.66069703, 0.00136681, -0.01149663
424169524.577463, -0.01754761, 0.01336670, 0.99818420, 0.01528122, -0.00606215, -0.02321957, -168.36653137, 137.90997314, 192.71018982, -0.01720295, 0.01547376, 0.99973226, -0.00034465, -0.00210706, -0.00154807, 0.00000000, 0.00000000, 0.00000000, 0.75055962, 0.66070144, 0.00134433, -0.01149154
424169524.594851, -0.01901245, 0.01266479, 0.99542236, 0.01999874, -0.00490608, -0.02082326, -169.05094910, 136.88334656, 191.37886047, -0.01712725, 0.01550017, 0.99973315, -0.00107649, -0.00506315, -0.00206776, 0.00000000, 0.00000000, 0.00000000, 0.75052318, 0.66074317, 0.00130656, -0.01147650
424169524.609328, -0.01902771, 0.01316833, 0.99493408, 0.01308997, 0.00447038, -0.02073910, -169.22206116, 138.76548767, 192.21093750, -0.01707053, 0.01554310, 0.99973345, 0.00126242, -0.00393116, -0.00557759, 0.00000000, 0.00000000, 0.00000000, 0.75048678, 0.66078463, 0.00127045, -0.01147394
424169524.625596, -0.01850891, 0.01242065, 0.99293518, 0.01294989, -0.00368608, -0.01854892, -169.22206116, 138.76548767, 192.21093750, -0.01710943, 0.01558114, 0.99973220, -0.00191828, -0.00241281, -0.00479813, 0.00000000, 0.00000000, 0.00000000, 0.75048118, 0.66079051, 0.00127239, -0.01150109
424169524.643373, -0.01847839, 0.01190186, 0.99768066, 0.01293497, -0.00486080, -0.01973243, -170.07757568, 138.93659973, 192.37736511, -0.01715140, 0.01549213, 0.99973285, -0.00135751, -0.00307148, -0.00679770, 0.00000000, 0.00000000, 0.00000000, 0.75048611, 0.66078517, 0.00131763, -0.01148154
424169524.656949, -0.01847839, 0.01190186, 0.99768066, 0.01528255, -0.00726537, -0.02905908, -170.07757568, 138.93659973, 192.37736511, -0.01714348, 0.01552727, 0.99973249, -0.00133491, -0.00362542, -0.00205180, 0.00000000, 0.00000000, 0.00000000, 0.75047574, 0.66079679, 0.00130287, -0.01149214
424169524.673619, -0.02238464, 0.01176453, 0.99595642, 0.01881816, -0.00489249, -0.01967144, -171.78862000, 139.96322632, 193.04302979, -0.01718047, 0.01560258, 0.99973065, -0.00257966, -0.00215959, -0.00751264, 0.00000000, 0.00000000, 0.00000000, 0.75048209, 0.66078889, 0.00129198, -0.01153261
424169524.688723, -0.01484680, 0.01255798, 0.99740601, 0.01193789, 0.00803529, -0.01138022, -169.73536682, 139.96322632, 191.37886047, -0.01727957, 0.01562047, 0.99972868, -0.00075631, -0.00248265, -0.00329923, 0.00000000, 0.00000000, 0.00000000, 0.75051040, 0.66075599, 0.00132377, -0.01157202
424169524.704230, -0.01953125, 0.01364136, 0.99569702, 0.00941800, -0.00126101, -0.00690638, -169.90646362, 138.08106995, 191.21244812, -0.01732221, 0.01567326, 0.99972713, 0.00247541, -0.00311527, -0.00232110, 0.00000000, 0.00000000, 0.00000000, 0.75053391, 0.66072869, 0.00132275, -0.01160588
424169524.720520, -0.01953125, 0.01364136, 0.99569702, 0.00836632, 0.00572686, -0.01029232, -169.22206116, 137.05444336, 191.87811279, -0.01732156, 0.01572852, 0.99972624, -0.00220969, -0.00208717, -0.00402923, 0.00000000, 0.00000000, 0.00000000, 0.75054024, 0.66072118, 0.00130436, -0.01162640
424169524.735803, -0.01704407, 0.01260376, 0.99716187, 0.01528814, -0.00487358, -0.01970792, -168.36653137, 138.25218201, 189.71469116, -0.01744134, 0.01569409, 0.99972469, 0.00039728, -0.00309033, -0.00256284, 0.00000000, 0.00000000, 0.00000000, 0.75057768, 0.66067806, 0.00136136, -0.01165298
424169524.751793, -0.01991272, 0.01046753, 0.99917603, 0.01644182, -0.00964197, -0.03490632, -170.59088135, 138.08106995, 189.54827881, -0.01748139, 0.01569615, 0.99972397, -0.00096648, -0.00574743, -0.00579698, 0.00000000, 0.00000000, 0.00000000, 0.75059854, 0.66065408, 0.00137608, -0.01166694
424169524.767523, -0.01727295, 0.01188660, 0.99467468, 0.01654729, 0.00097765, -0.01610573, -169.56427002, 139.10769653, 191.21244812, -0.01739836, 0.01567874, 0.99972570, 0.00040007, -0.00501284, -0.00457799, 0.00000000, 0.00000000, 0.00000000, 0.75052735, 0.66073561, 0.00134941, -0.01163311
424169524.784484, -0.01924133, 0.01245117, 0.99168396, 0.00947286, -0.00015819, -0.01736221, -170.07757568, 140.30543518, 191.04602051, -0.01737967, 0.01560086, 0.99972725, -0.00108347, -0.00441617, -0.00357246, 0.00000000, 0.00000000, 0.00000000, 0.75049737, 0.66077025, 0.00136759, -0.01159777
424169524.799205, -0.01924133, 0.01245117, 0.99168396, 0.01304816, 0.00214305, -0.01961445, -170.07757568, 140.30543518, 191.04602051, -0.01741633, 0.01566478, 0.99972558, -0.00182500, -0.00321360, -0.00804165, 0.00000000, 0.00000000, 0.00000000, 0.75050383, 0.66076229, 0.00136035, -0.01163386
424169524.814963, -0.01708984, 0.01359558, 0.99493408, 0.01993429, -0.00839322, -0.01855451, -170.93309021, 139.79211426, 191.87811279, -0.01747762, 0.01563554, 0.99972498, 0.00038778, -0.00203996, -0.00479091, 0.00000000, 0.00000000, 0.00000000, 0.75051086, 0.66075408, 0.00139314, -0.01164313
424169524.830476, -0.01678467, 0.01139832, 0.99516296, 0.01763332, -0.00847365, -0.03371056, -170.59088135, 139.44990540, 190.87960815, -0.01737863, 0.01578747, 0.99972433, 0.00244028, 0.00021900, -0.00378317, 0.00000000, 0.00000000, 0.00000000, 0.75051736, 0.66074644, 0.00130591, -0.01166743
424169524.847323, -0.01852417, 0.01264954, 0.99317932, 0.01071283, 0.00452604, -0.01377946, -169.39315796, 137.56776428, 190.71319580, -0.01725281, 0.01580014, 0.99972630, -0.00002014, -0.00391355, -0.00479223, 0.00000000, 0.00000000, 0.00000000, 0.75047476, 0.66079557, 0.00125374, -0.01163069
424169524.862278, -0.01785278, 0.01388550, 0.99095154, 0.01655714, 0.00336224, -0.00791864, -169.56427002, 138.76548767, 191.87811279, -0.01734769, 0.01567422, 0.99972665, 0.00009000, -0.00452004, -0.00480783, 0.00000000, 0.00000000, 0.00000000, 0.75048594, 0.66078301, 0.00133115, -0.01161476
424169524.877807, -0.01785278, 0.01388550, 0.99095154, 0.01994095, -0.00720492, -0.01504260, -170.07757568, 137.90997314, 190.71319580, -0.01745292, 0.01572784, 0.99972397, -0.00039986, -0.00184234, -0.00877244, 0.00000000, 0.00000000, 0.00000000, 0.75052546, 0.66073711, 0.00135363, -0.01166958
424169524.893973, -0.01803589, 0.01287842, 0.99417114, 0.01536644, 0.00099123, -0.01495365, -169.56427002, 138.08106995, 188.54977417, -0.01740167, 0.01576370, 0.99972433, -0.00063422, -0.00288528, -0.00555316, 0.00000000, 0.00000000, 0.00000000, 0.75054807, 0.66071154, 0.00132295, -0.01166606
424169524.909463, -0.01562500, 0.01431274, 0.99568176, 0.01767247, -0.00374041, -0.02315592, -169.39315796, 137.90997314, 191.04602051, -0.01740997, 0.01581733, 0.99972332, -0.00058014, -0.00489203, -0.00431621, 0.00000000, 0.00000000, 0.00000000, 0.75054850, 0.66071068, 0.00130836, -0.01168893
424169524.925697, -0.02044678, 0.01098633, 0.99443054, 0.01066276, -0.00138884, -0.02668115, -171.27529907, 138.08106995, 191.87811279, -0.01729673, 0.01590439, 0.99972391, 0.00167173, -0.00136276, -0.00379800, 0.00000000, 0.00000000, 0.00000000, 0.75052880, 0.66073328, 0.00123674, -0.01168423
424169524.941436, -0.01605225, 0.01283264, 0.99841309, 0.02117959, -0.00491966, -0.02197507, -171.27529907, 138.08106995, 191.87811279, -0.01738590, 0.01586526, 0.99972296, -0.00330502, -0.00339883, -0.00378181, 0.00000000, 0.00000000, 0.00000000, 0.75051448, 0.66074920, 0.00128288, -0.01169903
424169524.957391, -0.01721191, 0.01017761, 0.99641418, 0.00942306, -0.00247141, -0.01390969, -170.76199341, 138.93659973, 191.37886047, -0.01733731, 0.01600370, 0.99972159, 0.00128507, -0.00317106, -0.00130852, 0.00000000, 0.00000000, 0.00000000, 0.75050673, 0.66075748, 0.00121877, -0.01173496
424169524.973571, -0.01721191, 0.01017761, 0.99641418, 0.02346138, -0.00960869, -0.02319347, -171.10420227, 137.90997314, 192.71018982, -0.01725652, 0.01592109, 0.99972433, 0.00004461, -0.00574348, -0.00331014, 0.00000000, 0.00000000, 0.00000000, 0.75051056, 0.66075417, 0.00121580, -0.01167724
424169524.988693, -0.01837158, 0.01608276, 0.99397278, 0.02115402, -0.00727549, -0.02550643, -169.39315796, 139.27880859, 191.04602051, -0.01713688, 0.01600994, 0.99972498, 0.00254947, -0.00467266, -0.00433312, 0.00000000, 0.00000000, 0.00000000, 0.75052100, 0.66074255, 0.00114173, -0.01167103
424169525.004563, -0.01701355, 0.01138306, 0.99667358, 0.01421196, 0.00336064, -0.01027075, -169.73536682, 137.56776428, 191.04602051, -0.01697643, 0.01602631, 0.99972743, 0.00347240, -0.00740509, -0.00309963, 0.00000000, 0.00000000, 0.00000000, 0.75048059, 0.66078938, 0.00107538, -0.01162422
424169525.020481, -0.01847839, 0.01094055, 0.99415588, 0.01297465, -0.00012730, -0.00917805, -169.73536682, 137.22555542, 191.04602051, -0.01697892, 0.01596853, 0.99972832, -0.00052291, -0.00408193, -0.00204766, 0.00000000, 0.00000000, 0.00000000, 0.75048315, 0.66078680, 0.00109545, -0.01160336
424169525.036192, -0.01750183, 0.01116943, 0.99465942, 0.00838922, 0.00688720, -0.01143668, -168.87985229, 137.05444336, 189.21545410, -0.01698386, 0.01597143, 0.99972820, -0.00149453, -0.00503088, -0.00557231, 0.00000000, 0.00000000, 0.00000000, 0.75050176, 0.66076562, 0.00109667, -0.01160605
424169525.051804, -0.01750183, 0.01116943, 0.99465942, 0.01647698, -0.00490155, -0.02318788, -168.19543457, 138.08106995, 190.21394348, -0.01703928, 0.01589555, 0.99972844, -0.00046255, -0.00472612, -0.00506904, 0.00000000, 0.00000000, 0.00000000, 0.75048784, 0.66078153, 0.00114230, -0.01159590
424169525.067417, -0.01556396, 0.01161194, 0.99491882, 0.01180153, -0.00372976, -0.02670831, -168.70874023, 137.90997314, 191.04602051, -0.01702113, 0.01588839, 0.99972886, -0.00118261, -0.00593966, -0.00632068, 0.00000000, 0.00000000, 0.00000000, 0.75048410, 0.66078594, 0.00113779, -0.01158722
424169525.085103, -0.01879883, 0.01362610, 0.99644470, 0.01651932, 0.00102771, -0.00795806, -170.07757568, 138.93659973, 191.04602051, -0.01694716, 0.01579645, 0.99973160, -0.00058519, -0.00291803, -0.00380569, 0.00000000, 0.00000000, 0.00000000, 0.75042386, 0.66085538, 0.00113934, -0.01152837
424169525.099176, -0.01831055, 0.01388550, 0.99543762, 0.01528814, -0.00487358, -0.01970792, -170.07757568, 138.93659973, 191.04602051, -0.01706428, 0.01579193, 0.99972969, -0.00631219, -0.00450043, -0.00603156, 0.00000000, 0.00000000, 0.00000000, 0.75042963, 0.66084809, 0.00118490, -0.01156538
424169525.115014, -0.01676941, 0.01092529, 0.99215698, 0.02119344, -0.00254225, -0.01495179, -172.13082886, 140.30543518, 192.04452515, -0.01708954, 0.01582050, 0.99972880, -0.00122100, -0.00193500, -0.00429117, 0.00000000, 0.00000000, 0.00000000, 0.75041200, 0.66086778, 0.00118463, -0.01158448
424169525.130886, -0.01676941, 0.01092529, 0.99215698, 0.02232688, -0.00367277, -0.00797563, -169.39315796, 138.93659973, 191.04602051, -0.01707123, 0.01583249, 0.99972892, 0.00030182, -0.00490719, -0.00757193, 0.00000000, 0.00000000, 0.00000000, 0.75042870, 0.66084886, 0.00117409, -0.01158290
424169525.147215, -0.01535034, 0.01309204, 0.99491882, 0.01406335, -0.00838310, -0.02210717, -169.73536682, 137.56776428, 191.04602051, -0.01695176, 0.01594924, 0.99972910, 0.00160141, -0.00285720, -0.00481027, 0.00000000, 0.00000000, 0.00000000, 0.75043093, 0.66084640, 0.00109071, -0.01158722
424169525.162461, -0.01931763, 0.01559448, 0.99894714, 0.01067209, 0.00099549, -0.01849459, -170.24867249, 138.76548767, 190.54678345, -0.01686119, 0.01602560, 0.99972939, 0.00082421, -0.00391012, -0.00357462, 0.00000000, 0.00000000, 0.00000000, 0.75042711, 0.66085086, 0.00103142, -0.01158596
424169525.178048, -0.01895142, 0.01071167, 0.99291992, 0.01409425, -0.00723741, -0.02557940, -169.73536682, 137.90997314, 189.71469116, -0.01688496, 0.01603037, 0.99972892, -0.00206645, -0.00508982, -0.00232292, 0.00000000, 0.00000000, 0.00000000, 0.75041084, 0.66086915, 0.00103848, -0.01159563
424169525.193951, -0.01924133, 0.01217651, 0.99417114, 0.01055198, -0.00719693, -0.02212394, -169.73536682, 137.56776428, 190.38035583, -0.01685111, 0.01605092, 0.99972916, -0.00210031, -0.00533925, -0.00680925, 0.00000000, 0.00000000, 0.00000000, 0.75038050, 0.66090369, 0.00101845, -0.01159220
424169525.209831, -0.01924133, 0.01217651, 0.99417114, 0.01408359, -0.00841878, -0.02792697, -169.73536682, 138.59439087, 191.71170044, -0.01684356, 0.01599065, 0.99973029, -0.00239777, -0.00381414, -0.00555912, 0.00000000, 0.00000000, 0.00000000, 0.75034598, 0.66094330, 0.00103493, -0.01156714
424169525.225743, -0.01750183, 0.01141357, 0.99642944, 0.01641919, -0.00720039, -0.01740749, -170.24867249, 139.44990540, 191.21244812, -0.01678424, 0.01597022, 0.99973160, -0.00071759, -0.00455665, -0.00330214, 0.00000000, 0.00000000, 0.00000000, 0.75030735, 0.66098765, 0.00101874, -0.01153992
424169525.242620, -0.01625061, 0.01063538, 0.99813843, 0.02118252, -0.00372363, -0.01729963, -170.07757568, 139.96322632, 190.38035583, -0.01670303, 0.01604991, 0.99973166, -0.00154648, -0.00362926, -0.00404991, 0.00000000, 0.00000000, 0.00000000, 0.75027883, 0.66102005, 0.00096144, -0.01154302
424169525.257259, -0.01586914, 0.01382446, 0.99517822, 0.01532995, -0.00254625, -0.02083258, -170.07757568, 139.96322632, 190.38035583, -0.01668062, 0.01605088, 0.99973202, -0.00303374, -0.00340134, 0.00145816, 0.00000000, 0.00000000, 0.00000000, 0.75026670, 0.66103396, 0.00095250, -0.01153599
424169525.273490, -0.02113342, 0.00929260, 0.99441528, 0.01410383, -0.00485308, -0.01739231, -170.93309021, 140.13432312, 191.21244812, -0.01662674, 0.01615869, 0.99973118, 0.00075760, -0.00233423, -0.00455297, 0.00000000, 0.00000000, 0.00000000, 0.75026521, 0.66103533, 0.00089662, -0.01155863
424169525.288890, -0.02113342, 0.00929260, 0.99441528, 0.00719693, 0.00692235, -0.00679292, -169.90646362, 140.13432312, 190.21394348, -0.01664408, 0.01611849, 0.99973154, -0.00448934, -0.00682589, -0.00531626, 0.00000000, 0.00000000, 0.00000000, 0.75023216, 0.66107298, 0.00091584, -0.01154933
424169525.304656, -0.01661682, 0.01432800, 0.99293518, 0.01195173, 0.01041269, -0.00435720, -169.05094910, 137.22555542, 192.37736511, -0.01672358, 0.01608364, 0.99973077, 0.00010675, -0.00175564, -0.00679560, 0.00000000, 0.00000000, 0.00000000, 0.75026791, 0.66103212, 0.00095781, -0.01156249
424169525.320819, -0.01654053, 0.01187134, 0.99441528, 0.01294589, -0.00367916, -0.01738485, -168.70874023, 139.27880859, 190.71319580, -0.01687787, 0.01616037, 0.99972695, -0.00362995, -0.00296151, -0.00428933, 0.00000000, 0.00000000, 0.00000000, 0.75031940, 0.66097221, 0.00099125, -0.01164221
424169525.336309, -0.01678467, 0.01211548, 0.99667358, 0.01305508, 0.00333135, -0.01610280, -170.24867249, 137.73886108, 189.88111877, -0.01689143, 0.01620344, 0.99972600, -0.00245672, 0.00013873, -0.00401375, 0.00000000, 0.00000000, 0.00000000, 0.75034010, 0.66094837, 0.00098247, -0.01166282
424169525.352295, -0.01876831, 0.01242065, 0.99443054, 0.01295282, -0.00249059, -0.01387321, -169.22206116, 137.73886108, 191.54527283, -0.01694050, 0.01621474, 0.99972498, 0.00015584, -0.00409926, -0.00305143, 0.00000000, 0.00000000, 0.00000000, 0.75035133, 0.66093523, 0.00099735, -0.01168327
424169525.367684, -0.01876831, 0.01242065, 0.99443054, 0.01527722, -0.00605496, -0.02205550, -169.56427002, 138.76548767, 191.54527283, -0.01691227, 0.01618893, 0.99972594, -0.00185604, -0.00376828, -0.00529537, 0.00000000, 0.00000000, 0.00000000, 0.75034366, 0.66094428, 0.00099515, -0.01166426
424169525.384874, -0.01849365, 0.01216125, 0.99568176, 0.01296320, -0.00491087, -0.02788010, -170.24867249, 138.42327881, 189.88111877, -0.01686218, 0.01625570, 0.99972570, -0.00163147, -0.00409444, -0.00404391, 0.00000000, 0.00000000, 0.00000000, 0.75032140, 0.66096947, 0.00095390, -0.01167279
424169525.399556, -0.02075195, 0.01367188, 0.99345398, 0.01415763, -0.00254705, -0.02200863, -170.24867249, 138.42327881, 189.88111877, -0.01682226, 0.01633866, 0.99972498, -0.00222071, -0.00268204, -0.00778163, 0.00000000, 0.00000000, 0.00000000, 0.75029718, 0.66099670, 0.00091107, -0.01169076
424169525.415679, -0.01780701, 0.01287842, 0.99467468, 0.01648390, -0.00371245, -0.01967623, -169.90646362, 139.44990540, 190.21394348, -0.01681038, 0.01631434, 0.99972558, -0.00064567, -0.00685389, -0.00633264, 0.00000000, 0.00000000, 0.00000000, 0.75026863, 0.66102933, 0.00091415, -0.01167775
424169525.431172, -0.01918030, 0.01046753, 0.99615479, 0.01999368, -0.00369567, -0.01381968, -171.10420227, 139.27880859, 192.04452515, -0.01681545, 0.01624132, 0.99972671, 0.00009182, -0.00655199, -0.00581495, 0.00000000, 0.00000000, 0.00000000, 0.75027143, 0.66102657, 0.00094023, -0.01165202
424169525.448140, -0.01947021, 0.01095581, 0.99340820, 0.00589411, -0.00365519, -0.01978569, -170.59088135, 138.08106995, 191.54527283, -0.01682218, 0.01626437, 0.99972618, -0.00235812, -0.00579684, -0.00357142, 0.00000000, 0.00000000, 0.00000000, 0.75025584, 0.66104408, 0.00093487, -0.01166292
424169525.462769, -0.01947021, 0.01095581, 0.99340820, 0.01653796, -0.00140668, -0.02429256, -168.19543457, 138.42327881, 190.87960815, -0.01686716, 0.01614723, 0.99972737, -0.00260305, -0.00519142, -0.00631914, 0.00000000, 0.00000000, 0.00000000, 0.75022819, 0.66107589, 0.00098997, -0.01163388
424169525.478047, -0.01484680, 0.01208496, 0.99491882, 0.00478890, 0.00102718, -0.01855557, -169.22206116, 137.05444336, 190.54678345, -0.01679984, 0.01627464, 0.99972641, 0.00096122, -0.00319786, -0.00181687, 0.00000000, 0.00000000, 0.00000000, 0.75021673, 0.66108855, 0.00092240, -0.01165944
424169525.494552, -0.01580811, 0.01234436, 0.99716187, 0.01650068, -0.00013928, -0.00797750, -168.87985229, 138.76548767, 190.21394348, -0.01667144, 0.01619838, 0.99972981, 0.00182464, -0.00338100, -0.00357502, 0.00000000, 0.00000000, 0.00000000, 0.75018549, 0.66112528, 0.00089888, -0.01158842
424169525.509991, -0.01728821, 0.01239014, 0.99467468, 0.00942413, -0.00367410, -0.01974920, -168.87985229, 137.05444336, 189.88111877, -0.01679191, 0.01612206, 0.99972904, -0.00199166, -0.00347252, -0.00555788, 0.00000000, 0.00000000, 0.00000000, 0.75025803, 0.66104266, 0.00097058, -0.01159951
424169525.526905, -0.01828003, 0.01339722, 0.99594116, 0.01647698, -0.00490155, -0.02318788, -169.39315796, 138.59439087, 191.71170044, -0.01681060, 0.01610619, 0.99972898, -0.00047761, -0.00371606, -0.00505428, 0.00000000, 0.00000000, 0.00000000, 0.75027948, 0.66101829, 0.00098321, -0.01159970
424169525.542399, -0.01828003, 0.01339722, 0.99594116, 0.01773186, 0.00095714, -0.01842162, -170.07757568, 138.59439087, 193.04302979, -0.01686762, 0.01613817, 0.99972749, -0.00141241, -0.00274095, -0.00378632, 0.00000000, 0.00000000, 0.00000000, 0.75028195, 0.66101493, 0.00099409, -0.01163055
424169525.557593, -0.01727295, 0.01213074, 0.99592590, 0.00360832, 0.00104050, -0.01740349, -170.07757568, 138.59439087, 193.04302979, -0.01683745, 0.01618699, 0.99972719, -0.00116792, -0.00452928, -0.00555606, 0.00000000, 0.00000000, 0.00000000, 0.75025825, 0.66104172, 0.00096621, -0.01163893
424169525.573931, -0.01824951, 0.01242065, 0.99592590, 0.01291899, -0.00483231, -0.01507642, -170.24867249, 140.47653198, 192.21093750, -0.01685883, 0.01608110, 0.99972856, 0.00028778, -0.00323320, -0.00506913, 0.00000000, 0.00000000, 0.00000000, 0.75026768, 0.66103153, 0.00100940, -0.01160625
424169525.589177, -0.01824951, 0.01167297, 0.99517822, 0.01056290, -0.00601502, -0.01977637, -170.07757568, 138.59439087, 190.38035583, -0.01688024, 0.01603786, 0.99972886, -0.00143031, -0.00215236, -0.00503894, 0.00000000, 0.00000000, 0.00000000, 0.75027655, 0.66102159, 0.00103188, -0.01159709
424169525.605229, -0.01724243, 0.01113892, 0.99667358, 0.01867808, -0.01304896, -0.01748152, -170.07757568, 138.59439087, 191.04602051, -0.01693586, 0.01601756, 0.99972826, -0.00131365, -0.00434458, -0.00455005, 0.00000000, 0.00000000, 0.00000000, 0.75031230, 0.66098077, 0.00106009, -0.01160780
424169525.621241, -0.01724243, 0.01113892, 0.99667358, 0.00586561, -0.00720731, -0.02799249, -169.56427002, 138.08106995, 190.87960815, -0.01683488, 0.01597939, 0.99973059, -0.00040756, -0.00484047, -0.00305700, 0.00000000, 0.00000000, 0.00000000, 0.75029652, 0.66099957, 0.00103453, -0.01156012
424169525.636310, -0.02041626, 0.00999451, 0.99493408, 0.01884506, -0.00373934, -0.02197960, -169.90646362, 137.05444336, 191.21244812, -0.01676729, 0.01600697, 0.99973130, -0.00172636, -0.00433400, -0.00530074, 0.00000000, 0.00000000, 0.00000000, 0.75024655, 0.66105655, 0.00099918, -0.01154820
424169525.652618, -0.01681519, 0.01286316, 0.99415588, 0.01640587, -0.00957779, -0.02443051, -168.70874023, 138.59439087, 190.71319580, -0.01679990, 0.01599287, 0.99973094, -0.00225833, -0.00158857, -0.00752820, 0.00000000, 0.00000000, 0.00000000, 0.75022671, 0.66107894, 0.00101573, -0.01155372
424169525.668090, -0.01733398, 0.01385498, 0.99418640, 0.01409425, -0.00723741, -0.02557940, -169.05094910, 138.25218201, 192.04452515, -0.01672689, 0.01599207, 0.99973220, -0.00248392, -0.00503626, -0.00481337, 0.00000000, 0.00000000, 0.00000000, 0.75020893, 0.66109958, 0.00098829, -0.01152931
424169525.684249, -0.01611328, 0.01506042, 0.99568176, 0.01413659, -0.00130814, -0.01034931, -170.93309021, 139.44990540, 189.88111877, -0.01666633, 0.01604440, 0.99973238, -0.00066766, -0.00218941, -0.00554597, 0.00000000, 0.00000000, 0.00000000, 0.75017135, 0.66114229, 0.00094761, -0.01152897
424169525.700012, -0.01611328, 0.01506042, 0.99568176, 0.01762666, -0.00606056, -0.02086747, -170.93309021, 139.44990540, 189.88111877, -0.01662294, 0.01611651, 0.99973196, 0.00050966, -0.00105609, -0.00405017, 0.00000000, 0.00000000, 0.00000000, 0.75019685, 0.66111319, 0.00090794, -0.01154165
424169525.716320, -0.01708984, 0.01409912, 0.99342346, 0.01997877, -0.00487039, -0.01500318, -169.22206116, 138.76548767, 191.87811279, -0.01649374, 0.01621416, 0.99973249, 0.00114340, -0.00287797, -0.00505781, 0.00000000, 0.00000000, 0.00000000, 0.75018346, 0.66112860, 0.00082695, -0.01153558
424169525.731331, -0.01635742, 0.01408386, 0.99293518, 0.00246396, 0.00098990, -0.02672722, -170.24867249, 139.79211426, 190.21394348, -0.01652515, 0.01624545, 0.99973148, -0.00341809, -0.00503024, -0.00479738, 0.00000000, 0.00000000, 0.00000000, 0.75018414, 0.66112744, 0.00082841, -0.01155771
424169525.747696, -0.01828003, 0.01338196, 0.99670410, 0.01183962, 0.00220643, -0.01031469, -169.39315796, 138.25218201, 190.38035583, -0.01647621, 0.01623360, 0.99973249, -0.00210899, -0.00089852, -0.00377605, 0.00000000, 0.00000000, 0.00000000, 0.75013229, 0.66118664, 0.00081306, -0.01153715
424169525.762942, -0.01948547, 0.01242065, 0.99717712, 0.01758911, -0.00839508, -0.02090688, -170.07757568, 138.59439087, 189.04902649, -0.01646221, 0.01629356, 0.99973172, -0.00181782, -0.00291161, -0.00302762, 0.00000000, 0.00000000, 0.00000000, 0.75014953, 0.66116680, 0.00078828, -0.01155499
424169525.778324, -0.01948547, 0.01242065, 0.99717712, 0.01294190, -0.00367197, -0.01622078, -168.02432251, 137.90997314, 190.38035583, -0.01656770, 0.01626080, 0.99973053, -0.00291777, -0.00384015, -0.00255339, 0.00000000, 0.00000000, 0.00000000, 0.75018293, 0.66112845, 0.00083928, -0.01157754
424169525.795653, -0.01776123, 0.01139832, 0.99742126, 0.01662984, 0.00683580, -0.01251526, -170.93309021, 137.39665222, 189.88111877, -0.01653136, 0.01616689, 0.99973261, -0.00122987, -0.00476858, -0.00231137, 0.00000000, 0.00000000, 0.00000000, 0.75015565, 0.66116021, 0.00085621, -0.01153032
424169525.810273, -0.02015686, 0.01022339, 0.99691772, 0.02001951, -0.00133984, -0.01028832, -169.73536682, 136.88334656, 191.37886047, -0.01649507, 0.01628330, 0.99973136, 0.00135835, -0.00247410, -0.00578909, 0.00000000, 0.00000000, 0.00000000, 0.75016326, 0.66115109, 0.00080424, -0.01156199
424169525.826101, -0.01678467, 0.01139832, 0.99465942, 0.01296480, -0.00251216, -0.01736514, -170.07757568, 138.25218201, 189.71469116, -0.01653804, 0.01620971, 0.99973184, -0.00021611, -0.00578796, -0.00533181, 0.00000000, 0.00000000, 0.00000000, 0.75018669, 0.66112468, 0.00084510, -0.01154856
424169525.842292, -0.02069092, 0.01196289, 0.99543762, 0.01875425, -0.01318451, -0.03959668, -169.05094910, 137.90997314, 191.71170044, -0.01654647, 0.01616940, 0.99973238, -0.00023820, -0.00477109, -0.00507292, 0.00000000, 0.00000000, 0.00000000, 0.75020264, 0.66110678, 0.00086187, -0.01153620
424169525.857804, -0.02069092, 0.01196289, 0.99543762, 0.01772387, 0.00097125, -0.01609348, -169.05094910, 137.90997314, 191.71170044, -0.01648561, 0.01625997, 0.99973190, -0.00420531, -0.00429708, -0.00429426, 0.00000000, 0.00000000, 0.00000000, 0.75015416, 0.66116162, 0.00080825, -0.01155012
424169525.874161, -0.01927185, 0.01341248, 0.99543762, 0.01882908, -0.00371085, -0.01732386, -169.22206116, 139.79211426, 190.87960815, -0.01650950, 0.01627451, 0.99973124, -0.00276235, -0.00286203, -0.00429363, 0.00000000, 0.00000000, 0.00000000, 0.75010218, 0.66122034, 0.00081150, -0.01156353
424169525.889349, -0.01522827, 0.00917053, 0.99638367, 0.00709439, 0.00109989, -0.00456359, -169.90646362, 139.79211426, 191.21244812, -0.01650922, 0.01627198, 0.99973130, -0.00048907, -0.00511780, -0.00359177, 0.00000000, 0.00000000, 0.00000000, 0.75011795, 0.66120247, 0.00081251, -0.01156247
424169525.905114, -0.01875305, 0.01240540, 0.99668884, 0.01524367, -0.00839668, -0.02325898, -169.22206116, 138.08106995, 191.21244812, -0.01653134, 0.01605883, 0.99973440, -0.00121463, -0.00490465, -0.00158069, 0.00000000, 0.00000000, 0.00000000, 0.75015243, 0.66116452, 0.00089187, -0.01148978
424169525.921347, -0.01559448, 0.01283264, 0.99465942, 0.01893534, 0.00210416, -0.02071753, -169.56427002, 138.08106995, 191.21244812, -0.01648509, 0.01607881, 0.99973482, -0.00226796, -0.00367342, -0.00304598, 0.00000000, 0.00000000, 0.00000000, 0.75017373, 0.66114052, 0.00086828, -0.01148195
424169525.936722, -0.01559448, 0.01283264, 0.99465942, 0.00595749, 0.00103490, -0.01621519, -168.53764343, 138.76548767, 190.87960815, -0.01653500, 0.01604800, 0.99973452, 0.00094052, -0.00321536, -0.00507507, 0.00000000, 0.00000000, 0.00000000, 0.75018385, 0.66112891, 0.00089737, -0.01148688
424169525.952697, -0.01847839, 0.01167297, 0.99617004, 0.01761175, -0.00723528, -0.02205097, -169.90646362, 138.42327881, 191.21244812, -0.01652404, 0.01599548, 0.99973553, -0.00195435, -0.00432251, -0.00356547, 0.00000000, 0.00000000, 0.00000000, 0.75016890, 0.66114626, 0.00091036, -0.01146358
424169525.968330, -0.01429749, 0.01109314, 0.99563599, 0.01532729, -0.00374174, -0.02550802, -169.73536682, 136.88334656, 191.04602051, -0.01656529, 0.01595926, 0.99973541, -0.00211147, -0.00698710, -0.00582367, 0.00000000, 0.00000000, 0.00000000, 0.75018895, 0.66112347, 0.00093815, -0.01146360
424169525.983995, -0.01779175, 0.01214600, 0.99493408, 0.01304816, 0.00214305, -0.01961445, -170.76199341, 138.93659973, 190.71319580, -0.01647230, 0.01583737, 0.99973887, 0.00022169, -0.00567502, -0.00459118, 0.00000000, 0.00000000, 0.00000000, 0.75015042, 0.66116851, 0.00094289, -0.01138718
424169526.000338, -0.01649475, 0.01065063, 0.99613953, 0.02004189, -0.00378142, -0.02778716, -169.73536682, 139.27880859, 191.71170044, -0.01650092, 0.01579893, 0.99973905, -0.00129083, -0.00365293, -0.00480494, 0.00000000, 0.00000000, 0.00000000, 0.75016052, 0.66115709, 0.00096651, -0.01138220
424169526.016168, -0.01649475, 0.01065063, 0.99613953, 0.00595350, 0.00104209, -0.01505112, -169.73536682, 139.27880859, 191.71170044, -0.01651916, 0.01572319, 0.99973994, 0.00002441, -0.00507255, -0.00360039, 0.00000000, 0.00000000, 0.00000000, 0.75018255, 0.66113243, 0.00099877, -0.01135978
424169526.031742, -0.02047729, 0.01268005, 0.99719238, 0.01416589, -0.00256143, -0.02433650, -170.07757568, 140.64764404, 191.37886047, -0.01654607, 0.01571409, 0.99973959, -0.00393122, -0.00303404, -0.00254723, 0.00000000, 0.00000000, 0.00000000, 0.75019018, 0.66112367, 0.00101200, -0.01136526
424169526.047686, -0.01722717, 0.01042175, 0.99615479, 0.00950136, 0.00339340, -0.00915568, -170.59088135, 139.44990540, 190.21394348, -0.01646231, 0.01570107, 0.99974120, -0.00052072, -0.00529457, -0.00160277, 0.00000000, 0.00000000, 0.00000000, 0.75015922, 0.66115939, 0.00098435, -0.01133272
424169526.063128, -0.01998901, 0.01268005, 0.99343872, 0.01406335, -0.00838310, -0.02210717, -169.90646362, 139.10769653, 191.87811279, -0.01654239, 0.01561193, 0.99974126, -0.00391964, -0.00413732, -0.00555487, 0.00000000, 0.00000000, 0.00000000, 0.75015471, 0.66116454, 0.00104378, -0.01132577
424169526.078548, -0.01972961, 0.01245117, 0.99519348, 0.01063693, -0.00374494, -0.03021250, -168.02432251, 136.54113770, 190.38035583, -0.01653727, 0.01561811, 0.99974126, -0.00101034, -0.00248029, -0.00331182, 0.00000000, 0.00000000, 0.00000000, 0.75014568, 0.66117478, 0.00103966, -0.01132641
424169526.095647, -0.01901245, 0.01315308, 0.99691772, 0.02351784, -0.00610663, -0.02313435, -167.85322571, 137.39665222, 189.54827881, -0.01652392, 0.01561559, 0.99974149, -0.00320570, -0.00316442, -0.00454804, 0.00000000, 0.00000000, 0.00000000, 0.75010450, 0.66122159, 0.00103478, -0.01132111
424169526.111160, -0.01901245, 0.01315308, 0.99691772, 0.01180420, -0.00253426, -0.02203286, -168.36653137, 137.90997314, 191.37886047, -0.01647581, 0.01562465, 0.99974215, -0.00253664, -0.00247157, -0.00282445, 0.00000000, 0.00000000, 0.00000000, 0.75007361, 0.66125688, 0.00101321, -0.01130865
424169526.126205, -0.01794434, 0.01017761, 0.99690247, 0.01298904, -0.00255504, -0.02434875, -170.07757568, 139.27880859, 191.71170044, -0.01644312, 0.01558249, 0.99974334, -0.00195898, -0.00685446, -0.00184908, 0.00000000, 0.00000000, 0.00000000, 0.75003889, 0.66129671, 0.00101430, -0.01128208
424169526.142697, -0.02044678, 0.01170349, 0.99769592, 0.01994894, -0.00721930, -0.01737073, -170.07757568, 139.62101746, 191.37886047, -0.01643889, 0.01547014, 0.99974519, -0.00246675, -0.00575029, -0.00183564, 0.00000000, 0.00000000, 0.00000000, 0.74999991, 0.66134161, 0.00104920, -0.01123859
424169526.158297, -0.01559448, 0.01307678, 0.99667358, 0.01407401, -0.00720172, -0.01975959, -170.07757568, 139.62101746, 191.37886047, -0.01649551, 0.01550475, 0.99974370, -0.00237962, 0.00129517, -0.00253608, 0.00000000, 0.00000000, 0.00000000, 0.75001757, 0.66132103, 0.00105929, -0.01127028
424169526.175883, -0.01927185, 0.01390076, 0.99594116, 0.01884799, -0.00254385, -0.01730416, -170.59088135, 138.42327881, 191.54527283, -0.01639945, 0.01555307, 0.99974453, 0.00080496, -0.00247629, -0.00307096, 0.00000000, 0.00000000, 0.00000000, 0.74996877, 0.66137668, 0.00100645, -0.01125670
424169526.189571, -0.01927185, 0.01390076, 0.99594116, 0.00949737, 0.00340059, -0.00799161, -170.59088135, 138.42327881, 191.54527283, -0.01636137, 0.01556834, 0.99974495, -0.00291048, -0.00166758, -0.00380377, 0.00000000, 0.00000000, 0.00000000, 0.74995780, 0.66138927, 0.00098693, -0.01124985
424169526.205189, -0.01828003, 0.01264954, 0.99517822, 0.01766927, -0.00013156, -0.00563738, -170.24867249, 138.08106995, 191.87811279, -0.01641802, 0.01565675, 0.99974263, -0.00145002, -0.00080995, -0.00479328, 0.00000000, 0.00000000, 0.00000000, 0.75002286, 0.66131461, 0.00098005, -0.01130165
424169526.221587, -0.01898193, 0.01144409, 0.99467468, 0.01530013, -0.00489516, -0.02319986, -168.70874023, 137.22555542, 193.04302979, -0.01649015, 0.01563504, 0.99974179, 0.00022428, -0.00451138, -0.00285457, 0.00000000, 0.00000000, 0.00000000, 0.75007583, 0.66125422, 0.00101519, -0.01131728
424169526.236865, -0.01536560, 0.01356506, 0.99417114, 0.00955116, 0.00570662, -0.01260794, -169.39315796, 137.22555542, 189.71469116, -0.01652854, 0.01569214, 0.99974024, -0.00227028, -0.00180665, -0.00404323, 0.00000000, 0.00000000, 0.00000000, 0.75007321, 0.66125661, 0.00101067, -0.01135141
424169526.253018, -0.01814270, 0.01655579, 0.99446106, 0.00947819, -0.00136833, -0.02436553, -170.07757568, 138.25218201, 189.71469116, -0.01650666, 0.01575588, 0.99973959, 0.00114105, -0.00219082, -0.00556846, 0.00000000, 0.00000000, 0.00000000, 0.75009778, 0.66122849, 0.00098181, -0.01136804
424169526.268528, -0.01814270, 0.01655579, 0.99446106, 0.01413260, -0.00130095, -0.00918551, -169.73536682, 138.59439087, 192.37736511, -0.01651536, 0.01568996, 0.99974048, -0.00162734, 0.00086583, -0.00527944, 0.00000000, 0.00000000, 0.00000000, 0.75008563, 0.66124262, 0.00100666, -0.01134621
424169526.285392, -0.01728821, 0.01286316, 0.99568176, 0.00703208, -0.00479342, -0.01397334, -171.27529907, 139.79211426, 190.21394348, -0.01652461, 0.01568904, 0.99974036, -0.00241154, -0.00546565, -0.00607276, 0.00000000, 0.00000000, 0.00000000, 0.75010595, 0.66121951, 0.00101079, -0.01134889
424169526.300017, -0.01950073, 0.01243591, 0.99443054, 0.01181405, -0.00014940, -0.01384577, -170.07757568, 139.27880859, 192.71018982, -0.01657179, 0.01555693, 0.99974167, -0.00093005, -0.00438749, -0.00633344, 0.00000000, 0.00000000, 0.00000000, 0.75015520, 0.66116412, 0.00107300, -0.01131485
424169526.317065, -0.01725769, 0.01188660, 0.99617004, 0.01649589, -0.00373402, -0.02316817, -170.59088135, 140.81874084, 192.54377747, -0.01655892, 0.01551232, 0.99974257, -0.00185844, -0.00605187, -0.00134472, 0.00000000, 0.00000000, 0.00000000, 0.75013038, 0.66119262, 0.00108250, -0.01129390
424169526.331550, -0.02050781, 0.01393127, 0.99595642, 0.00250231, 0.00692635, -0.01033333, -170.59088135, 140.81874084, 192.54377747, -0.01653405, 0.01547240, 0.99974358, -0.00072364, -0.00358581, -0.00357354, 0.00000000, 0.00000000, 0.00000000, 0.75011856, 0.66120643, 0.00108616, -0.01127073
424169526.348522, -0.02050781, 0.01393127, 0.99595642, 0.00955915, 0.00569224, -0.01493581, -169.73536682, 137.56776428, 191.71170044, -0.01664636, 0.01536462, 0.99974340, -0.00386145, -0.00143335, -0.00378696, 0.00000000, 0.00000000, 0.00000000, 0.75012906, 0.66119443, 0.00116411, -0.01126741
424169526.363376, -0.01724243, 0.01113892, 0.99790955, 0.01407800, -0.00720891, -0.02092366, -170.76199341, 139.27880859, 191.04602051, -0.01663472, 0.01527228, 0.99974501, -0.00060771, -0.00413336, -0.00183544, 0.00000000, 0.00000000, 0.00000000, 0.75013767, 0.66118528, 0.00119041, -0.01122890
424169526.378764, -0.01972961, 0.01290894, 0.99818420, 0.00832850, 0.00339233, -0.01033173, -169.39315796, 136.88334656, 191.04602051, -0.01668722, 0.01531482, 0.99974346, -0.00404947, -0.00138354, -0.00354290, 0.00000000, 0.00000000, 0.00000000, 0.75017015, 0.66114785, 0.00119660, -0.01126216
424169526.395659, -0.01699829, 0.01042175, 0.99539185, 0.01884000, -0.00252947, -0.01497602, -167.33990479, 136.54113770, 190.04753113, -0.01672915, 0.01526226, 0.99974358, -0.00103208, -0.00360454, -0.00381766, 0.00000000, 0.00000000, 0.00000000, 0.75019449, 0.66112026, 0.00123012, -0.01125626
424169526.410591, -0.01725769, 0.01091003, 0.99291992, 0.00827204, -0.00010919, -0.01039059, -170.07757568, 136.88334656, 190.71319580, -0.01668573, 0.01526998, 0.99974418, -0.00031257, -0.00484823, -0.00435233, 0.00000000, 0.00000000, 0.00000000, 0.75017034, 0.66114791, 0.00121086, -0.01124485
424169526.426535, -0.01725769, 0.01091003, 0.99291992, 0.01176372, -0.00606428, -0.02674772, -168.19543457, 138.08106995, 191.21244812, -0.01664876, 0.01522297, 0.99974549, -0.00060893, -0.00431294, -0.00682559, 0.00000000, 0.00000000, 0.00000000, 0.75017656, 0.66114135, 0.00121264, -0.01121498
424169526.442546, -0.01596069, 0.00941467, 0.99913025, 0.03647066, -0.00379181, -0.01481303, -171.78862000, 138.93659973, 190.71319580, -0.01660811, 0.01513351, 0.99974751, 0.00064742, -0.00571884, -0.00061729, 0.00000000, 0.00000000, 0.00000000, 0.75014018, 0.66118339, 0.00122635, -0.01116804
424169526.458485, -0.01966858, 0.00787354, 0.97543335, 0.08708484, -0.00289832, -0.01427002, -170.76199341, 138.93659973, 192.04452515, -0.01658933, 0.01537159, 0.99974424, -0.00222476, -0.00269154, -0.01381283, 0.00000000, 0.00000000, 0.00000000, 0.75015413, 0.66116632, 0.00114083, -0.01125112
424169526.474697, -0.01583862, 0.01710510, 1.03067017, 0.01296480, -0.00251216, -0.01736514, -170.76199341, 138.93659973, 192.04452515, -0.01658370, 0.01617493, 0.99973166, -0.00032304, -0.00224366, -0.02527485, 0.00000000, 0.00000000, 0.00000000, 0.75018657, 0.66112474, 0.00087373, -0.01155061
424169526.489588, -0.01954651, 0.01081848, 0.96620178, 0.03536838, 0.00208632, -0.00890747, -169.90646362, 139.44990540, 192.87660217, -0.01648534, 0.01687648, 0.99972165, 0.00064672, 0.00022863, 0.03094850, 0.00000000, 0.00000000, 0.00000000, 0.75016924, 0.66114064, 0.00060462, -0.01178131
424169526.505561, -0.01954651, 0.01081848, 0.96620178, 0.07514855, -0.01333977, -0.01456909, -170.41978455, 137.56776428, 192.37736511, -0.01659472, 0.01678764, 0.99972135, -0.00295179, -0.00596916, -0.03351957, 0.00000000, 0.00000000, 0.00000000, 0.75019600, 0.66111016, 0.00067550, -0.01178412
424169526.521719, -0.01924133, 0.01170349, 0.99018860, 0.06578381, -0.01337466, -0.02863431, -168.87985229, 138.08106995, 190.87960815, -0.01640823, 0.01754824, 0.99971139, -0.00283310, -0.00584475, -0.00952277, 0.00000000, 0.00000000, 0.00000000, 0.75019325, 0.66110951, 0.00035407, -0.01200784
424169526.537199, -0.01686096, 0.01695251, 1.01718140, 0.02115136, -0.00847125, -0.03018187, -168.02432251, 136.54113770, 191.71170044, -0.01616445, 0.01857878, 0.99969673, 0.00142446, -0.00182463, -0.01301765, 0.00000000, 0.00000000, 0.00000000, 0.75015582, 0.66114643, -0.00007873, -0.01231389
424169526.552948, -0.01397705, 0.01786804, 1.01042175, -0.04110989, 0.00369514, -0.00502325, -167.68211365, 137.22555542, 191.04602051, -0.01603014, 0.01899424, 0.99969107, -0.00084608, -0.00155345, 0.01649850, 0.00000000, 0.00000000, 0.00000000, 0.75009570, 0.66121251, -0.00026759, -0.01242533
424169526.568766, -0.01823425, 0.01689148, 1.04341125, -0.15847406, 0.02541321, 0.00575349, -168.87985229, 139.10769653, 191.54527283, -0.01602409, 0.01862500, 0.99969810, 0.00204704, -0.00075696, 0.01072363, 0.00000000, 0.00000000, 0.00000000, 0.75014251, 0.66116207, -0.00014692, -0.01228482
424169526.584738, -0.01823425, 0.01689148, 1.04341125, -0.04572914, 0.00836818, -0.00848483, -169.90646362, 139.10769653, 191.54527283, -0.01635171, 0.01663786, 0.99972785, -0.00188254, 0.00025362, 0.04368339, 0.00000000, 0.00000000, 0.00000000, 0.75025319, 0.66104771, 0.00063484, -0.01164752
424169526.600514, -0.02549744, 0.00274658, 0.86978149, -0.01062441, -0.00588665, -0.01766768, -170.41978455, 139.96322632, 191.37886047, -0.01649313, 0.01444361, 0.99975967, -0.00900431, -0.01169703, -0.12997815, 0.00000000, 0.00000000, 0.00000000, 0.75034880, 0.66095121, 0.00141471, -0.01087075
424169526.616774, -0.01835632, 0.01274109, 0.97171021, 0.10396901, 0.02630165, 0.00385173, -169.56427002, 141.16094971, 191.87811279, -0.01650340, 0.01424233, 0.99976236, 0.00225169, -0.00131814, 0.03058736, 0.00000000, 0.00000000, 0.00000000, 0.75037247, 0.66092537, 0.00148547, -0.01079857
424169526.632290, -0.02331543, 0.02523804, 1.05723572, 0.02571468, -0.01784904, -0.03261840, -169.56427002, 141.16094971, 191.87811279, -0.01664765, 0.01490363, 0.99975032, 0.00270112, -0.01464423, -0.05465146, 0.00000000, 0.00000000, 0.00000000, 0.75042153, 0.66086511, 0.00132190, -0.01109432
424169526.648164, -0.01583862, 0.01498413, 1.01065063, 0.00249085, 0.00214305, -0.02903565, -172.13082886, 138.59439087, 192.04452515, -0.01664103, 0.01563069, 0.99973935, -0.00646077, -0.00696370, -0.01978939, 0.00000000, 0.00000000, 0.00000000, 0.75038181, 0.66090606, 0.00107849, -0.01136505
424169526.663774, -0.01583862, 0.01498413, 1.01065063, 0.00963159, 0.00916580, -0.01953269, -169.05094910, 137.56776428, 189.38186646, -0.01650157, 0.01579425, 0.99973911, 0.00066294, -0.00081012, 0.01091155, 0.00000000, 0.00000000, 0.00000000, 0.75034331, 0.66094967, 0.00097144, -0.01138039
424169526.679042, -0.01940918, 0.00378418, 0.94691467, 0.01180712, -0.00133824, -0.01735742, -168.36653137, 138.25218201, 191.04602051, -0.01665623, 0.01512843, 0.99974680, -0.00275294, -0.01134425, -0.05283215, 0.00000000, 0.00000000, 0.00000000, 0.75035152, 0.66094327, 0.00124966, -0.01118165
424169526.695932, -0.01820374, 0.00926208, 0.98664856, 0.01884692, -0.00134064, -0.01146464, -166.82659912, 137.73886108, 191.21244812, -0.01668068, 0.01531595, 0.99974358, 0.00091835, -0.00352090, 0.00915232, 0.00000000, 0.00000000, 0.00000000, 0.75038067, 0.66090894, 0.00119736, -0.01126004
424169526.711321, -0.01802063, 0.01452637, 1.00942993, 0.01653823, 0.00219524, -0.00793835, -170.07757568, 136.88334656, 190.38035583, -0.01663773, 0.01551434, 0.99974120, -0.00016219, -0.00266644, -0.00009216, 0.00000000, 0.00000000, 0.00000000, 0.75039933, 0.66088687, 0.00111601, -0.01132027
424169526.726826, -0.02072144, 0.01437378, 1.00843811, 0.00114063, -0.00474735, -0.01170646, -170.76199341, 138.59439087, 190.71319580, -0.01669138, 0.01555693, 0.99973965, 0.00044077, -0.00730193, -0.02159024, 0.00000000, 0.00000000, 0.00000000, 0.75043878, 0.66084148, 0.00112274, -0.01135392
424169526.743461, -0.02018738, 0.01119995, 0.99668884, 0.00488211, 0.00806645, -0.01261726, -170.76199341, 140.30543518, 191.37886047, -0.01663052, 0.01564976, 0.99973923, -0.00409091, -0.00127598, 0.00869889, 0.00000000, 0.00000000, 0.00000000, 0.75045960, 0.66081767, 0.00106959, -0.01136861
424169526.758407, -0.02018738, 0.01119995, 0.99668884, 0.00820946, -0.00600250, -0.01980087, -172.47303772, 139.27880859, 190.71319580, -0.01677483, 0.01542702, 0.99974024, -0.00341255, -0.00422707, -0.00305143, 0.00000000, 0.00000000, 0.00000000, 0.75050149, 0.66077050, 0.00119806, -0.01133263
424169526.775355, -0.01927185, 0.01246643, 0.98469543, 0.01294296, -0.00487518, -0.02206029, -170.41978455, 137.90997314, 190.71319580, -0.01678216, 0.01533370, 0.99974161, -0.00102485, -0.00147872, 0.00044152, 0.00000000, 0.00000000, 0.00000000, 0.75051299, 0.66075794, 0.00123184, -0.01130000
424169526.790219, -0.01287842, 0.01132202, 0.99015808, 0.03430498, 0.00909629, -0.00880148, -170.41978455, 137.90997314, 190.71319580, -0.01665296, 0.01543278, 0.99974221, -0.00281725, -0.00327152, 0.00042563, 0.00000000, 0.00000000, 0.00000000, 0.75047893, 0.66079685, 0.00115003, -0.01129456
424169526.805696, -0.01579285, 0.01327515, 1.01065063, 0.01051443, -0.00953145, -0.02216336, -169.90646362, 137.05444336, 190.87960815, -0.01654018, 0.01562337, 0.99974114, 0.00169338, -0.00327901, -0.00633293, 0.00000000, 0.00000000, 0.00000000, 0.75048812, 0.66078601, 0.00104489, -0.01132880
424169526.822286, -0.01727295, 0.01283264, 1.00067139, -0.00112066, -0.00009401, -0.01630760, -169.39315796, 138.59439087, 191.37886047, -0.01638627, 0.01574004, 0.99974185, 0.00059343, -0.00246489, 0.01090880, 0.00000000, 0.00000000, 0.00000000, 0.75047221, 0.66080435, 0.00094830, -0.01132175
424169526.837443, -0.01727295, 0.01283264, 1.00067139, 0.01302419, 0.00218592, -0.01263057, -168.19543457, 136.71224976, 192.21093750, -0.01633767, 0.01552334, 0.99974602, -0.00093528, -0.00269070, 0.00092537, 0.00000000, 0.00000000, 0.00000000, 0.75046525, 0.66081383, 0.00100153, -0.01122437
424169526.853476, -0.01753235, 0.01095581, 0.98617554, 0.02002244, -0.00014408, -0.00561288, -168.87985229, 137.39665222, 190.87960815, -0.01643042, 0.01528790, 0.99974811, 0.00086645, -0.00485089, -0.01682271, 0.00000000, 0.00000000, 0.00000000, 0.75051399, 0.66075927, 0.00111496, -0.01116657
424169526.868919, -0.01733398, 0.01385498, 0.99494934, 0.02120143, -0.00255663, -0.01727992, -169.56427002, 138.76548767, 190.21394348, -0.01656951, 0.01536330, 0.99974465, -0.00433503, -0.00460585, -0.00357463, 0.00000000, 0.00000000, 0.00000000, 0.75058109, 0.66068174, 0.00114340, -0.01124072
424169526.885665, -0.02212524, 0.01075745, 0.99842834, 0.00712076, -0.00134862, -0.02322596, -171.44641113, 138.93659973, 191.37886047, -0.01654884, 0.01546023, 0.99974352, -0.00336388, -0.00355837, 0.00520032, 0.00000000, 0.00000000, 0.00000000, 0.75055465, 0.66071134, 0.00110317, -0.01127032
424169526.900650, -0.01776123, 0.01116943, 0.99441528, 0.00701716, -0.00596761, -0.01515685, -171.10420227, 139.96322632, 190.71319580, -0.01659333, 0.01538559, 0.99974394, -0.00553192, -0.00462814, -0.00131560, 0.00000000, 0.00000000, 0.00000000, 0.75053269, 0.66073645, 0.00114415, -0.01125704
424169526.916360, -0.01776123, 0.01116943, 0.99441528, 0.02359241, -0.00023462, -0.01721600, -170.24867249, 138.76548767, 190.87960815, -0.01663872, 0.01511264, 0.99974734, -0.00112251, -0.00394320, -0.00533207, 0.00000000, 0.00000000, 0.00000000, 0.75056373, 0.66070247, 0.00125189, -0.01116953
424169526.932795, -0.01629639, 0.01138306, 0.99291992, 0.02135296, 0.01038340, -0.00076806, -170.59088135, 139.44990540, 191.87811279, -0.01659865, 0.01522583, 0.99974632, 0.00054641, -0.00358337, -0.00983236, 0.00000000, 0.00000000, 0.00000000, 0.75056043, 0.66070582, 0.00119940, -0.01119879
424169526.948271, -0.01588440, 0.01502991, 0.99691772, 0.00936740, -0.00717615, -0.01980833, -170.59088135, 139.44990540, 191.87811279, -0.01663752, 0.01536445, 0.99974352, 0.00098200, -0.00031928, -0.00706775, 0.00000000, 0.00000000, 0.00000000, 0.75061637, 0.66064123, 0.00116915, -0.01126356
424169526.963927, -0.01826477, 0.01242065, 0.99443054, 0.00946487, -0.00014381, -0.01503408, -170.07757568, 138.59439087, 191.04602051, -0.01662618, 0.01543884, 0.99974257, -0.00101298, 0.00158997, 0.00147813, 0.00000000, 0.00000000, 0.00000000, 0.75064186, 0.66061190, 0.00114076, -0.01128770
424169526.979101, -0.01728821, 0.01191711, 0.98793030, 0.01058580, -0.00485521, -0.02092073, -169.22206116, 137.73886108, 192.21093750, -0.01669241, 0.01529392, 0.99974370, -0.00157236, -0.00287327, -0.00531315, 0.00000000, 0.00000000, 0.00000000, 0.75064751, 0.66060590, 0.00121359, -0.01125517
424169526.995638, -0.01728821, 0.01191711, 0.98793030, 0.00952826, 0.00454655, -0.01146384, -169.39315796, 137.22555542, 190.04753113, -0.01660877, 0.01520367, 0.99974644, -0.00067944, -0.00328655, -0.01181617, 0.00000000, 0.00000000, 0.00000000, 0.75064230, 0.66061288, 0.00121191, -0.01119366
424169527.011682, -0.02072144, 0.01269531, 0.99543762, 0.00482858, 0.00576042, -0.00800093, -169.22206116, 137.39665222, 189.21545410, -0.01671165, 0.01516010, 0.99974543, -0.00400978, -0.00246479, -0.00430779, 0.00000000, 0.00000000, 0.00000000, 0.75065071, 0.66060293, 0.00126506, -0.01121128
424169527.026970, -0.01591492, 0.01602173, 0.99618530, -0.00114356, -0.00125408, -0.01516324, -169.73536682, 139.27880859, 191.04602051, -0.01670660, 0.01509605, 0.99974644, -0.00221430, -0.00488792, -0.00159278, 0.00000000, 0.00000000, 0.00000000, 0.75064959, 0.66060460, 0.00128430, -0.01118557
424169527.043242, -0.01728821, 0.01239014, 0.99467468, 0.01055091, -0.00599371, -0.01628443, -170.41978455, 138.93659973, 192.04452515, -0.01679857, 0.01503447, 0.99974585, -0.00421278, -0.00037077, -0.00378943, 0.00000000, 0.00000000, 0.00000000, 0.75068130, 0.66056833, 0.00133971, -0.01119277
424169527.058430, -0.01603699, 0.01138306, 0.99441528, 0.01881550, -0.00608825, -0.02434689, -171.44641113, 139.96322632, 191.04602051, -0.01673882, 0.01491485, 0.99974865, -0.00054939, -0.00252472, -0.00507397, 0.00000000, 0.00000000, 0.00000000, 0.75069462, 0.66055425, 0.00135701, -0.01112810
424169527.075972, -0.01603699, 0.01138306, 0.99441528, 0.02000567, -0.00371724, -0.01731161, -170.41978455, 138.59439087, 192.71018982, -0.01665649, 0.01495463, 0.99974942, 0.00061950, -0.00357158, -0.00533415, 0.00000000, 0.00000000, 0.00000000, 0.75066851, 0.66058422, 0.00131252, -0.01111589
424169527.090249, -0.01626587, 0.01112366, 0.99813843, 0.01764957, -0.00490075, -0.02201156, -170.41978455, 138.59439087, 192.71018982, -0.01657175, 0.01500059, 0.99975014, 0.00030588, -0.00387694, -0.00161172, 0.00000000, 0.00000000, 0.00000000, 0.75067096, 0.66058170, 0.00126557, -0.01110514
424169527.106112, -0.02026367, 0.01318359, 0.99543762, 0.01647298, -0.00489436, -0.02202381, -170.24867249, 138.76548767, 190.21394348, -0.01649345, 0.01505151, 0.99975067, -0.00099312, -0.00414148, -0.00184113, 0.00000000, 0.00000000, 0.00000000, 0.75066750, 0.66058584, 0.00121929, -0.01109839
424169527.121851, -0.02145386, 0.01248169, 0.99418640, 0.01531504, -0.00372044, -0.02201609, -169.22206116, 138.42327881, 191.54527283, -0.01660825, 0.01497159, 0.99974996, -0.00316714, -0.00033841, -0.00379356, 0.00000000, 0.00000000, 0.00000000, 0.75067235, 0.66058005, 0.00128887, -0.01110631
424169527.137349, -0.01902771, 0.01341248, 0.99494934, 0.02235191, -0.00491886, -0.02079902, -169.05094910, 137.90997314, 191.37886047, -0.01658622, 0.01504197, 0.99974930, -0.00486764, -0.00256028, -0.00556289, 0.00000000, 0.00000000, 0.00000000, 0.75065846, 0.66059558, 0.00125712, -0.01112548
424169527.153563, -0.01902771, 0.01341248, 0.99494934, 0.01410676, -0.00365679, -0.01271659, -171.27529907, 138.76548767, 190.54678345, -0.01656288, 0.01512684, 0.99974841, -0.00246483, -0.00171436, -0.00479905, 0.00000000, 0.00000000, 0.00000000, 0.75065284, 0.66060163, 0.00122023, -0.01114964
424169527.169209, -0.01710510, 0.01483154, 0.99642944, 0.01178928, -0.00370845, -0.02321664, -170.07757568, 137.90997314, 190.71319580, -0.01656751, 0.01513477, 0.99974817, -0.00053759, -0.00030322, -0.00331875, 0.00000000, 0.00000000, 0.00000000, 0.75067399, 0.66057752, 0.00121971, -0.01115410
424169527.185298, -0.01800537, 0.01142883, 0.99192810, 0.01293098, -0.00485361, -0.01856862, -171.95971680, 138.08106995, 191.87811279, -0.01647853, 0.01511268, 0.99975002, -0.00006200, -0.00324135, -0.00483118, 0.00000000, 0.00000000, 0.00000000, 0.75066893, 0.66058395, 0.00119351, -0.01111643
424169527.200754, -0.01548767, 0.00891113, 0.99412537, 0.01416296, -0.00375692, -0.02901221, -169.73536682, 138.25218201, 190.71319580, -0.01639930, 0.01495927, 0.99975359, 0.00213233, -0.00581926, -0.00639118, 0.00000000, 0.00000000, 0.00000000, 0.75065801, 0.66059773, 0.00121425, -0.01103268
424169527.216543, -0.01795959, 0.01019287, 0.99540710, 0.02350879, -0.00488956, -0.01496670, -171.95971680, 139.10769653, 192.54377747, -0.01628920, 0.01492031, 0.99975598, 0.00080153, -0.00600918, -0.00563063, 0.00000000, 0.00000000, 0.00000000, 0.75064889, 0.66060899, 0.00118563, -0.01098169
424169527.232893, -0.01795959, 0.01019287, 0.99540710, 0.01295974, -0.00130175, -0.01036156, -169.90646362, 140.47653198, 191.87811279, -0.01624304, 0.01486972, 0.99975747, -0.00171656, -0.00467684, -0.00435039, 0.00000000, 0.00000000, 0.00000000, 0.75065162, 0.66060646, 0.00118506, -0.01094744
424169527.248774, -0.02032471, 0.01611328, 0.99572754, 0.01759178, -0.00719959, -0.01623117, -169.90646362, 140.47653198, 191.87811279, -0.01631309, 0.01494159, 0.99975526, -0.00401162, 0.00117169, -0.00402775, 0.00000000, 0.00000000, 0.00000000, 0.75067656, 0.66057728, 0.00118803, -0.01099752
424169527.264036, -0.01931763, 0.01512146, 0.99395752, 0.01297412, -0.00372896, -0.02553252, -169.73536682, 138.59439087, 191.37886047, -0.01625252, 0.01502441, 0.99975502, -0.00309563, 0.00107361, -0.00504983, 0.00000000, 0.00000000, 0.00000000, 0.75064267, 0.66061569, 0.00113738, -0.01100866
424169527.279356, -0.01501465, 0.01013184, 0.99565125, 0.01645407, -0.00606135, -0.02204352, -169.05094910, 137.90997314, 191.71170044, -0.01617305, 0.01503362, 0.99975616, 0.00039546, -0.00439824, -0.00584444, 0.00000000, 0.00000000, 0.00000000, 0.75062090, 0.66064086, 0.00110414, -0.01098590
424169527.295887, -0.01966858, 0.01046753, 0.99691772, 0.00823636, -0.00484988, -0.02210903, -169.05094910, 138.59439087, 190.71319580, -0.01600758, 0.01493999, 0.99976027, 0.00006215, -0.00602886, -0.00311718, 0.00000000, 0.00000000, 0.00000000, 0.75059542, 0.66067136, 0.00107252, -0.01089613
424169527.312151, -0.01966858, 0.01046753, 0.99691772, 0.01308890, 0.00567307, -0.01489932, -169.22206116, 139.44990540, 189.88111877, -0.01590644, 0.01486849, 0.99976295, -0.00376214, -0.00440096, -0.00284520, 0.00000000, 0.00000000, 0.00000000, 0.75055942, 0.66071326, 0.00105758, -0.01083593
424169527.327180, -0.01721191, 0.00990295, 0.99716187, 0.01650681, -0.00255264, -0.02082059, -169.90646362, 137.05444336, 190.54678345, -0.01592180, 0.01474745, 0.99976450, -0.00129011, -0.00484449, -0.00260261, 0.00000000, 0.00000000, 0.00000000, 0.75056433, 0.66070828, 0.00110342, -0.01079556
424169527.343249, -0.01734924, 0.01457214, 0.99418640, 0.01169394, -0.00834182, -0.01747566, -170.41978455, 139.96322632, 192.37736511, -0.01592449, 0.01478695, 0.99976385, -0.00304219, -0.00286983, -0.00234259, 0.00000000, 0.00000000, 0.00000000, 0.75055312, 0.66072077, 0.00109119, -0.01081129
424169527.358880, -0.01805115, 0.01313782, 0.99467468, 0.01294296, -0.00487518, -0.02206029, -171.95971680, 140.81874084, 191.21244812, -0.01595679, 0.01484859, 0.99976242, -0.00470361, 0.00471318, -0.00325668, 0.00000000, 0.00000000, 0.00000000, 0.75057409, 0.66069641, 0.00108330, -0.01084507
424169527.375072, -0.01684570, 0.01432800, 0.99917603, 0.01652731, 0.00101333, -0.01028593, -171.61750793, 139.44990540, 191.54527283, -0.01596382, 0.01482836, 0.99976259, -0.00283501, -0.00143114, -0.00507267, 0.00000000, 0.00000000, 0.00000000, 0.75056265, 0.66070948, 0.00109243, -0.01083982
424169527.391301, -0.01603699, 0.01138306, 0.99516296, 0.00712768, -0.00015979, -0.01971432, -169.90646362, 138.42327881, 190.87960815, -0.01592373, 0.01484002, 0.99976307, -0.00092197, -0.00051201, -0.00058705, 0.00000000, 0.00000000, 0.00000000, 0.75058009, 0.66068985, 0.00107382, -0.01083092
424169527.406247, -0.01603699, 0.01138306, 0.99516296, 0.01997078, -0.00485601, -0.01267532, -169.90646362, 138.42327881, 190.87960815, -0.01587660, 0.01472780, 0.99976546, -0.00016038, -0.00334474, -0.00460252, 0.00000000, 0.00000000, 0.00000000, 0.75057318, 0.66069860, 0.00109309, -0.01077323
424169527.422214, -0.01551819, 0.01039124, 0.99639893, 0.01067688, 0.00459022, -0.00330392, -169.39315796, 137.56776428, 192.04452515, -0.01588186, 0.01473527, 0.99976528, -0.00137583, -0.00382524, -0.00435819, 0.00000000, 0.00000000, 0.00000000, 0.75060282, 0.66066486, 0.00109307, -0.01077773
424169527.437798, -0.01895142, 0.01118469, 0.99815369, 0.00718547, 0.00213905, -0.02549497, -170.93309021, 137.05444336, 191.21244812, -0.01592187, 0.01466159, 0.99976575, -0.00087806, -0.00181369, -0.00135265, 0.00000000, 0.00000000, 0.00000000, 0.75065716, 0.66060328, 0.00113332, -0.01076319
424169527.453889, -0.02171326, 0.01347351, 0.99397278, 0.00938924, -0.00481313, -0.01511291, -169.05094910, 136.54113770, 189.38186646, -0.01598360, 0.01466305, 0.99976474, -0.00354765, -0.00053341, -0.00257235, 0.00000000, 0.00000000, 0.00000000, 0.75063962, 0.66062283, 0.00115572, -0.01078417
424169527.469838, -0.01797485, 0.01043701, 0.99340820, 0.01878993, -0.00844408, -0.02787824, -170.24867249, 138.42327881, 191.87811279, -0.01601188, 0.01466702, 0.99976420, -0.00570137, -0.00119351, -0.00579144, 0.00000000, 0.00000000, 0.00000000, 0.75064043, 0.66062172, 0.00116505, -0.01079500
424169527.486485, -0.01797485, 0.01043701, 0.99340820, 0.00835247, 0.00334946, -0.01731561, -170.24867249, 139.10769653, 190.21394348, -0.01591539, 0.01466227, 0.99976581, -0.00205946, -0.00422526, -0.00635763, 0.00000000, 0.00000000, 0.00000000, 0.75061242, 0.66065415, 0.00112993, -0.01076139
424169527.500951, -0.01679993, 0.01213074, 0.99392700, 0.01178822, -0.00250577, -0.01737713, -170.07757568, 138.93659973, 191.37886047, -0.01585360, 0.01460093, 0.99976772, 0.00297518, -0.00207346, -0.00362818, 0.00000000, 0.00000000, 0.00000000, 0.75059819, 0.66067104, 0.00112677, -0.01071796
424169527.517240, -0.01675415, 0.01115417, 0.99613953, 0.01405137, -0.00836153, -0.01861550, -171.27529907, 139.10769653, 191.87811279, -0.01576858, 0.01454114, 0.99976993, 0.00093704, -0.00219678, -0.00385928, 0.00000000, 0.00000000, 0.00000000, 0.75059133, 0.66067966, 0.00111449, -0.01066744
424169527.532752, -0.01774597, 0.01091003, 0.99667358, 0.01655820, 0.00215956, -0.01375816, -170.76199341, 138.59439087, 193.37585449, -0.01570248, 0.01450855, 0.99977142, -0.00059391, -0.00312550, -0.00711092, 0.00000000, 0.00000000, 0.00000000, 0.75062471, 0.66064232, 0.00110098, -0.01063332
424169527.549452, -0.02075195, 0.01463318, 0.99819946, 0.01178023, -0.00249139, -0.01504899, -170.07757568, 139.27880859, 191.04602051, -0.01570567, 0.01449766, 0.99977154, -0.00204030, -0.00358763, -0.00309796, 0.00000000, 0.00000000, 0.00000000, 0.75063004, 0.66063630, 0.00110586, -0.01063027
424169527.564311, -0.02075195, 0.01463318, 0.99819946, 0.01172856, -0.00720332, -0.02211169, -170.07757568, 139.27880859, 191.04602051, -0.01575015, 0.01454305, 0.99977016, -0.00500181, 0.00009013, -0.00157073, 0.00000000, 0.00000000, 0.00000000, 0.75062848, 0.66063755, 0.00110754, -0.01066201
424169527.579619, -0.01777649, 0.01141357, 0.99293518, 0.01310089, 0.00565176, -0.01839152, -169.22206116, 137.73886108, 190.87960815, -0.01563854, 0.01459829, 0.99977112, -0.00264149, -0.00048391, 0.00041197, 0.00000000, 0.00000000, 0.00000000, 0.75059869, 0.66067176, 0.00104692, -0.01064592
424169527.596076, -0.01660156, 0.01432800, 0.99568176, 0.01762666, -0.00606056, -0.02086747, -169.39315796, 137.22555542, 190.38035583, -0.01562979, 0.01458646, 0.99977148, -0.00239085, -0.00195218, -0.00384554, 0.00000000, 0.00000000, 0.00000000, 0.75056297, 0.66071246, 0.00104696, -0.01063864
424169527.612010, -0.01794434, 0.00993347, 0.99566650, 0.00703048, -0.00719240, -0.02448830, -169.05094910, 138.93659973, 191.04602051, -0.01563810, 0.01457577, 0.99977148, -0.00282504, -0.00412350, -0.00460851, 0.00000000, 0.00000000, 0.00000000, 0.75056395, 0.66071136, 0.00105363, -0.01063737
424169527.627709, -0.01928711, 0.01390076, 0.99295044, 0.01653024, 0.00220936, -0.00561048, -171.10420227, 140.30543518, 191.37886047, -0.01562026, 0.01452190, 0.99977255, -0.00232407, -0.00458843, -0.00410603, 0.00000000, 0.00000000, 0.00000000, 0.75056718, 0.66070809, 0.00106478, -0.01061126
424169527.643647, -0.01928711, 0.01390076, 0.99295044, 0.01876037, -0.00719133, -0.01389105, -171.10420227, 138.93659973, 191.71170044, -0.01576334, 0.01443499, 0.99977154, -0.00352377, -0.00053423, -0.00682111, 0.00000000, 0.00000000, 0.00000000, 0.75060932, 0.66065984, 0.00114788, -0.01062583
424169527.659056, -0.01971436, 0.01243591, 0.99693298, 0.01526923, -0.00604058, -0.01972763, -171.10420227, 139.27880859, 191.71170044, -0.01583369, 0.01447057, 0.99976993, -0.00388066, -0.00203466, -0.00283694, 0.00000000, 0.00000000, 0.00000000, 0.75063409, 0.66063107, 0.00116293, -0.01066239
424169527.675358, -0.01890564, 0.00924683, 0.99589539, 0.01651373, -0.00136380, -0.01730895, -171.27529907, 138.42327881, 191.21244812, -0.01574949, 0.01449405, 0.99977094, -0.00323245, -0.00233280, -0.00134257, 0.00000000, 0.00000000, 0.00000000, 0.75060440, 0.66066519, 0.00112309, -0.01064344
424169527.690615, -0.01675415, 0.01115417, 0.99639893, 0.01527323, -0.00604777, -0.02089170, -169.05094910, 138.59439087, 190.38035583, -0.01574591, 0.01446051, 0.99977148, -0.00227472, -0.00184149, -0.00160251, 0.00000000, 0.00000000, 0.00000000, 0.75059290, 0.66067845, 0.00113264, -0.01062969
424169527.706501, -0.01632690, 0.01260376, 0.99415588, 0.02117746, -0.00251376, -0.01029605, -169.05094910, 138.59439087, 190.38035583, -0.01574806, 0.01442286, 0.99977195, -0.00100609, -0.00326869, -0.00337304, 0.00000000, 0.00000000, 0.00000000, 0.75062283, 0.66064465, 0.00114636, -0.01061621
