Timestamp, AccelerationX, AccelerationY, AccelerationZ, GyroX, GyroY, GyroZ, MagnetometerX, MagnetometerY, MagnetometerZ, DMUserAccelerationX, DMUserAccelerationY, DMUserAccelerationZ, DMGravityX, DMGravityY, DMGravityZ, DMMagX, DMMagY, DMMagZ, DMAttitudeX, DMAttitudeY, DMAttitudeZ, DMAttitudeW 
424169655.557306, -0.02250671, -0.40921021, -0.91004944, 0.04217089, -0.10708624, -0.10376954, -160.32463074, 143.89862061, 235.81204224, -0.03926187, -0.36795259, -0.92901528, 0.00404458, -0.02763152, -0.08273398, 0.00000000, 0.00000000, 0.00000000, 0.07084630, -0.17456563, -0.86568378, 0.46378792
424169655.573781, -0.02250671, -0.40921021, -0.91004944, -0.02123977, -0.09376005, -0.08093133, -158.10028076, 143.72750854, 235.31278992, -0.03999979, -0.36863977, -0.92871135, 0.01090129, -0.03519933, -0.00349387, 0.00000000, 0.00000000, 0.00000000, 0.07053637, -0.17512555, -0.86601139, 0.46301180
424169655.592703, -0.04057312, -0.40126038, -0.90739441, -0.03309510, -0.09714093, -0.07180069, -159.12690735, 142.01647949, 235.64562988, -0.04033226, -0.36983433, -0.92822188, 0.01896995, -0.03766688, 0.01292342, 0.00000000, 0.00000000, 0.00000000, 0.07054067, -0.17582113, -0.86627560, 0.46225266
424169655.605024, -0.05847168, -0.39868164, -0.89653015, -0.06943127, -0.02242462, -0.10235700, -159.12690735, 142.01647949, 235.64562988, -0.04150879, -0.36922216, -0.92841369, 0.00093567, -0.03203821, 0.02101930, 0.00000000, 0.00000000, 0.00000000, 0.06975674, -0.17586115, -0.86659490, 0.46175766
424169655.623442, -0.06059265, -0.39395142, -0.91093445, -0.06794789, 0.06860143, -0.10431309, -159.29800415, 143.89862061, 235.47920227, -0.04183872, -0.36817765, -0.92881364, -0.01663296, -0.03050399, 0.03228347, 0.00000000, 0.00000000, 0.00000000, 0.06924130, -0.17549596, -0.86697374, 0.46126277
424169655.636372, -0.00848389, -0.40122986, -0.96701050, -0.07323746, 0.17356567, -0.12356588, -158.78469849, 144.75413513, 236.31129456, -0.04151000, -0.36807460, -0.92886919, -0.01644288, -0.02351171, 0.02666279, 0.00000000, 0.00000000, 0.00000000, 0.06926317, -0.17540812, -0.86724974, 0.46077379
424169655.652816, -0.00848389, -0.40122986, -0.96701050, -0.05625102, 0.13502173, -0.11239312, -160.15353394, 142.35868835, 237.30978394, -0.03882668, -0.36692068, -0.92944163, -0.00510337, -0.03072337, -0.00062736, 0.00000000, 0.00000000, 0.00000000, 0.07007246, -0.17426716, -0.86767209, 0.46028898
424169655.668236, 0.05825806, -0.40713501, -1.01715088, -0.00642994, 0.02653520, -0.05665449, -161.18016052, 145.43855286, 236.64411926, -0.03369772, -0.36607397, -0.92997545, 0.06502402, -0.03785671, -0.07126052, 0.00000000, 0.00000000, 0.00000000, 0.07203375, -0.17269458, -0.86814707, 0.45968293
424169655.683794, 0.01638794, -0.39291382, -0.98356628, 0.04982588, -0.05294391, -0.02364195, -159.98242188, 145.60966492, 237.14337158, -0.03242770, -0.36557484, -0.93021691, 0.09068576, -0.04156018, -0.08693397, 0.00000000, 0.00000000, 0.00000000, 0.07242095, -0.17218232, -0.86836330, 0.45940574
424169655.701642, -0.03807068, -0.36993408, -0.91937256, 0.05982126, -0.09157120, -0.03232971, -159.98242188, 145.60966492, 237.14337158, -0.03283425, -0.36589798, -0.93007559, 0.04922219, -0.02701583, -0.05349071, 0.00000000, 0.00000000, 0.00000000, 0.07229256, -0.17244129, -0.86839825, 0.45926273
424169655.715936, -0.01924133, -0.37654114, -0.89956665, 0.03647599, -0.08697485, -0.06508526, -161.69346619, 145.26745605, 237.14337158, -0.03329290, -0.36670882, -0.92973989, 0.01989568, -0.01515763, -0.02558240, 0.00000000, 0.00000000, 0.00000000, 0.07224541, -0.17294701, -0.86842896, 0.45902186
424169655.732076, -0.01924133, -0.37654114, -0.89956665, 0.01949833, -0.04964798, -0.08442514, -160.49574280, 143.72750854, 236.97695923, -0.03443666, -0.36711898, -0.92953634, 0.00283571, -0.00547013, 0.02533100, 0.00000000, 0.00000000, 0.00000000, 0.07175703, -0.17344385, -0.86858161, 0.45862200
424169655.748203, -0.01115417, -0.37745667, -0.89962769, 0.03010704, 0.02502812, -0.07957579, -161.00904846, 144.58303833, 236.81053162, -0.03417480, -0.36782163, -0.92926818, 0.02518737, -0.00842958, 0.02214841, 0.00000000, 0.00000000, 0.00000000, 0.07193457, -0.17375654, -0.86881766, 0.45802833
424169655.764587, -0.01708984, -0.37342834, -0.89256287, 0.01122549, 0.09399121, -0.08094944, -159.12690735, 143.38529968, 237.30978394, -0.03387274, -0.36809817, -0.92916971, 0.02271856, -0.00935849, 0.02954204, 0.00000000, 0.00000000, 0.00000000, 0.07204160, -0.17385381, -0.86904959, 0.45753434
424169655.778863, -0.00862122, -0.37162781, -0.90159607, -0.01514007, 0.06496355, -0.07938111, -157.41586304, 144.41192627, 236.64411926, -0.03241614, -0.36815619, -0.92919868, 0.01532630, -0.00527214, 0.03663582, 0.00000000, 0.00000000, 0.00000000, 0.07265272, -0.17355759, -0.86920965, 0.45724602
424169655.794368, -0.02084351, -0.37348938, -0.92126465, -0.03129454, 0.01373579, -0.07225822, -158.27139282, 144.58303833, 236.81053162, -0.03027402, -0.36846977, -0.92914665, 0.02165280, -0.00315804, 0.02755059, 0.00000000, 0.00000000, 0.00000000, 0.07361711, -0.17322584, -0.86939864, 0.45685811
424169655.810605, -0.02084351, -0.37348938, -0.92126465, -0.02896001, 0.01255547, -0.07225342, -158.27139282, 144.58303833, 236.81053162, -0.02954309, -0.36791295, -0.92939079, 0.01555078, -0.00429468, 0.02158440, 0.00000000, 0.00000000, 0.00000000, 0.07374209, -0.17281986, -0.86963311, 0.45654535
424169655.825800, -0.03057861, -0.37570190, -0.92570496, -0.02831633, 0.04983707, -0.08326320, -157.92918396, 144.24082947, 236.81053162, -0.02881599, -0.36760455, -0.92953569, 0.00754524, -0.00902815, 0.00599745, 0.00000000, 0.00000000, 0.00000000, 0.07391570, -0.17253591, -0.86987303, 0.45616745
424169655.842062, -0.03320312, -0.37738037, -0.91722107, -0.02910915, 0.07077590, -0.09572440, -159.29800415, 144.58303833, 235.81204224, -0.02791584, -0.36696652, -0.92981517, -0.00266277, -0.00873538, 0.00411023, 0.00000000, 0.00000000, 0.00000000, 0.07408652, -0.17205696, -0.87014484, 0.45580209
424169655.859117, -0.04147339, -0.36610413, -0.88136292, -0.01900165, 0.18268300, -0.11120855, -157.75807190, 143.72750854, 236.31129456, -0.02660024, -0.36637849, -0.93008560, -0.00660288, -0.01100189, 0.01286454, 0.00000000, 0.00000000, 0.00000000, 0.07444869, -0.17150682, -0.87043672, 0.45539294
424169655.873677, -0.07173157, -0.35076904, -0.87707520, -0.02035720, 0.31212727, -0.13233940, -160.49574280, 145.43855286, 236.31129456, -0.02459888, -0.36654902, -0.93007350, -0.01687451, 0.00044490, 0.04871058, 0.00000000, 0.00000000, 0.00000000, 0.07530861, -0.17114867, -0.87065513, 0.45496856
424169655.890472, -0.11813354, -0.33178711, -0.84494019, 0.00052597, 0.42604718, -0.19074119, -160.15353394, 143.04309082, 235.97845459, -0.01985984, -0.36604822, -0.93038392, -0.03510232, 0.00026454, 0.04209354, 0.00000000, 0.00000000, 0.00000000, 0.07725400, -0.16982299, -0.87090760, 0.45465584
424169655.905632, -0.11813354, -0.33178711, -0.84494019, 0.01179541, 0.51635844, -0.30084825, -161.18016052, 143.04309082, 235.97845459, -0.01543685, -0.36573026, -0.93059289, -0.07042436, 0.02210233, 0.05690512, 0.00000000, 0.00000000, 0.00000000, 0.07910144, -0.16866099, -0.87114028, 0.45432482
424169655.921378, -0.09887695, -0.34811401, -0.77851868, -0.03858042, 0.57419511, -0.43192691, -161.18016052, 143.04309082, 235.97845459, -0.00692158, -0.36572930, -0.93069553, -0.11121196, 0.03394221, 0.08575534, 0.00000000, 0.00000000, 0.00000000, 0.08273778, -0.16675341, -0.87171762, 0.45327271
424169655.937102, 0.00260925, -0.36546326, -0.77947998, -0.18645430, 0.58152173, -0.51132773, -161.00904846, 144.24082947, 236.47770691, 0.00343427, -0.36533287, -0.93087059, -0.10231122, 0.01721885, 0.15235195, 0.00000000, 0.00000000, 0.00000000, 0.08696955, -0.16431978, -0.87271270, 0.45145082
424169655.952701, 0.09840393, -0.36264038, -0.85145569, -0.29693580, 0.58790533, -0.52052149, -160.83795166, 144.41192627, 236.64411926, 0.01468244, -0.36303958, -0.93165803, -0.01207318, -0.00242366, 0.15217805, 0.00000000, 0.00000000, 0.00000000, 0.09104225, -0.16087975, -0.87416912, 0.44906276
424169655.968967, 0.08224487, -0.36535645, -0.87635803, -0.30868674, 0.52758553, -0.46927668, -160.83795166, 144.75413513, 236.97695923, 0.02603245, -0.35882875, -0.93304032, 0.03799343, -0.01034240, 0.13119096, 0.00000000, 0.00000000, 0.00000000, 0.09467407, -0.15657797, -0.87588943, 0.44647270
424169655.984371, 0.08224487, -0.36535645, -0.87635803, -0.35578261, 0.45672920, -0.45465673, -162.72009277, 143.21420288, 238.47470093, 0.03673784, -0.35383210, -0.93458718, 0.05281599, -0.01050202, 0.05868691, 0.00000000, 0.00000000, 0.00000000, 0.09789326, -0.15206354, -0.87752437, 0.44412225
424169656.000386, 0.08990479, -0.36174011, -0.97602844, -0.30558575, 0.37279142, -0.39268443, -161.86457825, 143.38529968, 237.64262390, 0.04645090, -0.34834570, -0.93621451, 0.03579397, -0.01701074, 0.05985647, 0.00000000, 0.00000000, 0.00000000, 0.10059907, -0.14755534, -0.87908981, 0.44193705
424169656.015881, 0.08389282, -0.33148193, -1.05538940, -0.19383419, 0.29987407, -0.38226109, -161.86457825, 143.38529968, 237.64262390, 0.05418252, -0.34289289, -0.93781060, 0.03572227, -0.01884723, -0.03821784, 0.00000000, 0.00000000, 0.00000000, 0.10245959, -0.14351561, -0.88056810, 0.43989217
424169656.032939, 0.09152222, -0.36286926, -1.01223755, -0.07188378, 0.05764625, -0.37223003, -161.69346619, 143.89862061, 237.47621155, 0.06133183, -0.33903053, -0.93877405, 0.02256099, 0.00754859, -0.11661536, 0.00000000, 0.00000000, 0.00000000, 0.10447938, -0.14034613, -0.88180798, 0.43795173
424169656.047784, 0.07771301, -0.35301208, -0.88648987, 0.03853035, 0.12374698, -0.34436830, -160.49574280, 142.01647949, 236.31129456, 0.06500807, -0.33669186, -0.93936819, 0.02649889, -0.00615787, -0.12789258, 0.00000000, 0.00000000, 0.00000000, 0.10523873, -0.13871095, -0.88310394, 0.43567364
424169656.064284, 0.07771301, -0.35301208, -0.88648987, 0.05775757, 0.29408036, -0.34132377, -160.83795166, 142.70088196, 236.64411926, 0.06812259, -0.33614829, -0.93934214, 0.02571896, -0.02478309, -0.01871146, 0.00000000, 0.00000000, 0.00000000, 0.10618234, -0.13803713, -0.88421105, 0.43340730
424169656.079188, -0.00125122, -0.37185669, -0.74830627, 0.00983319, 0.73397146, -0.41129594, -161.86457825, 144.41192627, 236.64411926, 0.07309338, -0.33649212, -0.93884528, 0.00461963, -0.01651998, 0.05235539, 0.00000000, 0.00000000, 0.00000000, 0.10823794, -0.13733870, -0.88504774, 0.43140831
424169656.094526, -0.09036255, -0.34043884, -0.65214539, -0.03936871, 1.51665852, -0.54422656, -161.52236938, 143.04309082, 238.64111328, 0.08343255, -0.33614689, -0.93810678, -0.08468377, -0.03570980, 0.18980047, 0.00000000, 0.00000000, 0.00000000, 0.11260628, -0.13515343, -0.88582253, 0.42938540
424169656.111099, -0.09947205, -0.28350830, -0.71006775, -0.19075903, 2.21160375, -0.80073211, -162.89120483, 142.70088196, 236.31129456, 0.10423307, -0.33500367, -0.93643367, -0.19459562, -0.00543518, 0.28428829, 0.00000000, 0.00000000, 0.00000000, 0.12165539, -0.13031935, -0.88628636, 0.42744978
424169656.126675, 0.05589294, -0.59757996, -0.97296143, -0.29109895, 2.44214109, -0.98531501, -162.89120483, 142.70088196, 236.31129456, 0.13762541, -0.33142218, -0.93339092, -0.25559109, 0.02578863, 0.28992778, 0.00000000, 0.00000000, 0.00000000, 0.13593172, -0.12176663, -0.88672311, 0.42475590
424169656.142427, 0.05589294, -0.59757996, -0.97296143, -0.20496407, 2.51930645, -0.69681290, -165.28665161, 143.38529968, 235.64562988, 0.17767942, -0.32508171, -0.92884439, -0.16608274, -0.03314887, 0.11814493, 0.00000000, 0.00000000, 0.00000000, 0.15264867, -0.11079797, -0.88736391, 0.42072257
424169656.158265, 0.34582520, -0.35775757, -0.98373413, -0.03792128, 3.42768513, -0.50648477, -167.68211365, 143.38529968, 234.97996521, 0.21706147, -0.31989256, -0.92225432, -0.01762910, -0.09850343, 0.12693574, 0.00000000, 0.00000000, 0.00000000, 0.16967667, -0.10041245, -0.88688501, 0.41780636
424169656.173989, 0.37797546, -0.44828796, -0.97166443, 0.41222937, 4.00506325, -0.36295610, -168.87985229, 142.52978516, 234.48071289, 0.26523063, -0.31540892, -0.91113663, 0.08059455, -0.04234867, -0.07259752, 0.00000000, 0.00000000, 0.00000000, 0.19147810, -0.08813530, -0.88432954, 0.41656881
424169656.190042, 0.13710022, -0.39002991, -0.62091064, 0.52901032, 5.14102529, -0.22289114, -172.64413452, 144.58303833, 235.47920227, 0.32130343, -0.31729496, -0.89223766, 0.05667202, -0.13099301, -0.07942679, 0.00000000, 0.00000000, 0.00000000, 0.21903275, -0.07684943, -0.87934148, 0.41578525
424169656.205637, -0.11679077, -0.26908875, -0.86790466, 0.56186494, 6.96365918, -0.48657897, -176.57952881, 144.75413513, 233.31579590, 0.38775450, -0.32319617, -0.86324430, -0.08561520, -0.12922691, 0.06578945, 0.00000000, 0.00000000, 0.00000000, 0.25340149, -0.06454102, -0.87102007, 0.41586799
424169656.221256, -0.11679077, -0.26908875, -0.86790466, 1.36019195, 6.96256409, -1.28832735, -176.57952881, 144.75413513, 233.31579590, 0.47363150, -0.32793990, -0.81739134, -0.54362357, -0.07536516, 0.17336364, 0.00000000, 0.00000000, 0.00000000, 0.29856846, -0.04648864, -0.85788332, 0.41561027
424169656.237591, 0.08299255, -0.26109314, -0.50743103, 1.44704589, 5.84097700, -1.37714404, -177.77726746, 144.24082947, 232.81654358, 0.56906903, -0.33202103, -0.75227821, -0.61283123, 0.19981889, -0.24531090, 0.00000000, 0.00000000, 0.00000000, 0.35089740, -0.02705379, -0.84234520, 0.40815887
424169656.253245, 0.34275818, -0.39624023, -0.22785950, 1.39264976, 6.23991640, -1.46881670, -181.19934082, 145.26745605, 231.15237427, 0.64538473, -0.33572790, -0.68612343, -0.56239218, 0.07463475, 0.17869240, 0.00000000, 0.00000000, 0.00000000, 0.39592433, -0.01349859, -0.82852747, 0.39573218
424169656.268907, 0.58174133, -0.26815796, -0.02023315, 1.35382407, 7.39106884, -1.84688544, -183.25259399, 144.24082947, 228.48971558, 0.71518099, -0.33489895, -0.61348093, -0.37242278, -0.06134129, 0.38562146, 0.00000000, 0.00000000, 0.00000000, 0.43961217, 0.00081219, -0.81271612, 0.38240422
424169656.284385, 0.91731262, -0.31056213, 0.07556152, 1.43872245, 8.70758442, -2.17783833, -185.81916809, 144.06971741, 225.32780457, 0.78632897, -0.32703513, -0.52415150, -0.32420126, 0.04337424, 0.43955681, 0.00000000, 0.00000000, 0.00000000, 0.48740885, 0.01889067, -0.79244925, 0.36619661
424169656.300966, 0.91731262, -0.31056213, 0.07556152, 1.51272770, 9.79528119, -2.14261110, -188.55682373, 146.12297058, 220.00248718, 0.85807544, -0.31061003, -0.40893519, -0.13177231, 0.00366422, 0.43572962, 0.00000000, 0.00000000, 0.00000000, 0.54200484, 0.04198991, -0.76478677, 0.34578720
424169656.316159, 1.28297424, -0.38334656, 0.13874817, 1.47200530, 10.61680886, -1.83369374, -188.55682373, 146.12297058, 220.00248718, 0.91898948, -0.28808385, -0.26919517, 0.20022744, -0.06901760, 0.36292991, 0.00000000, 0.00000000, 0.00000000, 0.60064767, 0.06800582, -0.72850847, 0.32229333
424169656.332031, 1.27459717, -0.22593689, -0.10488892, 1.25670550, 10.49089887, -1.42835716, -189.75456238, 144.92524719, 217.83906555, 0.95840937, -0.26382038, -0.10885885, 0.32456484, -0.11952619, 0.24760702, 0.00000000, 0.00000000, 0.00000000, 0.66076641, 0.09464844, -0.68262424, 0.29741146
424169656.347796, 1.05554199, -0.15104675, -0.33998108, 1.05467438, 8.29937509, -0.93981730, -190.61007690, 144.06971741, 212.34732056, 0.96871978, -0.24079970, 0.05997883, 0.30587736, 0.01486281, -0.16486774, 0.00000000, 0.00000000, 0.00000000, 0.71799094, 0.12032634, -0.62884038, 0.27307574
424169656.364242, 0.84020996, -0.26538086, 0.28590393, 1.06517096, 5.42467006, -0.12526897, -189.58345032, 143.04309082, 210.68316650, 0.95383763, -0.22160140, 0.20269820, 0.21046899, 0.03877059, -0.46191451, 0.00000000, 0.00000000, 0.00000000, 0.76262597, 0.14053731, -0.57893002, 0.25197407
424169656.379333, 0.84020996, -0.26538086, 0.28590393, 1.10710350, 4.87238744, 0.45719871, -190.43898010, 142.87199402, 208.85258484, 0.93008965, -0.21150303, 0.30033273, 0.06826241, -0.01843166, -0.40735787, 0.00000000, 0.00000000, 0.00000000, 0.79216382, 0.15047538, -0.54213614, 0.23647843
424169656.394876, 0.60464478, -0.09661865, 0.74516296, 1.28047422, 6.37959014, 0.27467444, -188.89903259, 144.06971741, 205.35783386, 0.90319449, -0.21054006, 0.37404892, -0.21212395, 0.02546620, 0.16985062, 0.00000000, 0.00000000, 0.00000000, 0.81463800, 0.15293587, -0.51204686, 0.22535207
424169656.410926, 0.52554321, -0.05567932, 0.53367615, 1.44117069, 7.49845176, -0.43355703, -188.89903259, 144.06971741, 205.35783386, 0.86366183, -0.20846856, 0.45894352, -0.25901702, 0.11184991, 0.28621945, 0.00000000, 0.00000000, 0.00000000, 0.83982974, 0.15542765, -0.47495129, 0.21201302
424169656.426698, 0.79344177, -0.26918030, -0.12887573, 1.22662590, 5.41075717, -0.91991097, -188.72793579, 142.18757629, 201.86309814, 0.80541939, -0.19497918, 0.55971670, -0.27987614, 0.13929985, -0.02604054, 0.00000000, 0.00000000, 0.00000000, 0.86787233, 0.16326652, -0.42774923, 0.19280107
424169656.442370, 1.08691406, -0.36181641, 0.49792480, 1.29489843, 2.41272355, -0.36985582, -187.01689148, 142.18757629, 201.86309814, 0.74790508, -0.17334434, 0.64077276, -0.16256265, -0.04421547, -0.47109506, 0.00000000, 0.00000000, 0.00000000, 0.88890357, 0.17388742, -0.38681351, 0.17317309
424169656.460188, 0.84667969, -0.02374268, 1.11338806, 1.19800571, 1.44346873, 0.61854340, -188.21461487, 140.30543518, 201.03100586, 0.71440154, -0.15269589, 0.68287218, 0.28976411, -0.18876529, -0.63853014, 0.00000000, 0.00000000, 0.00000000, 0.89969036, 0.17886682, -0.36570095, 0.15756500
424169656.474139, 0.84667969, -0.02374268, 1.11338806, 1.18236123, 2.72032371, 0.58383229, -185.13475037, 140.30543518, 198.70118713, 0.69677287, -0.14349492, 0.70279211, 0.28274983, -0.09980647, 0.19152550, 0.00000000, 0.00000000, 0.00000000, 0.90598202, 0.17490754, -0.35598318, 0.14791861
424169656.490783, 0.79086304, 0.11532593, 0.94378662, 1.60622356, 4.19309520, -0.04241910, -184.79254150, 140.30543518, 197.36985779, 0.67022520, -0.13793592, 0.72922689, 0.17645448, 0.11419325, 0.38416117, 0.00000000, 0.00000000, 0.00000000, 0.91434068, 0.16909926, -0.34089761, 0.13847518
424169656.505923, 0.80654907, -0.17230225, 1.03552246, 1.64950525, 4.74941597, -0.07923437, -182.39707947, 139.62101746, 194.04151917, 0.62557048, -0.12272079, 0.77045518, 0.16529253, 0.23804672, 0.17333147, 0.00000000, 0.00000000, 0.00000000, 0.92572961, 0.16808410, -0.31544528, 0.12355847
424169656.521543, 0.56616211, -0.09327698, 0.73965454, 1.63675191, 4.05040303, 0.31981156, -182.39707947, 139.62101746, 194.04151917, 0.56737959, -0.10102876, 0.81723535, 0.23916946, -0.07127348, 0.21828714, 0.00000000, 0.00000000, 0.00000000, 0.93809679, 0.16909188, -0.28349319, 0.10494736
424169656.538397, 0.41072083, 0.00358582, 0.85498047, 1.53750229, 1.91314142, 0.61130573, -182.22596741, 139.79211426, 194.87361145, 0.50851184, -0.08115003, 0.85722250, 0.21583812, -0.07267383, 0.03135785, 0.00000000, 0.00000000, 0.00000000, 0.94897604, 0.16749840, -0.25251313, 0.08732629
424169656.552949, 0.41072083, 0.00358582, 0.85498047, 1.56148645, 0.66127595, 0.73148433, -181.54154968, 138.08106995, 193.87510681, 0.47170642, -0.06393004, 0.87943506, -0.00507739, 0.01533080, -0.12934349, 0.00000000, 0.00000000, 0.00000000, 0.95574641, 0.16206888, -0.23436332, 0.07318680
424169656.569746, 0.16403198, 0.25959778, 1.27380371, 1.28410437, 0.71569791, 0.22088205, -180.51493835, 138.76548767, 193.87510681, 0.45742488, -0.04767072, 0.88796961, -0.04670405, 0.05125654, -0.03298912, 0.00000000, 0.00000000, 0.00000000, 0.95925863, 0.15429738, -0.22851707, 0.06160481
424169656.584818, 0.30352783, 0.18241882, 1.61221313, 0.33882466, 1.07683401, -0.35907428, -181.54154968, 140.13432312, 193.54226685, 0.44813278, -0.03140286, 0.89341527, -0.28410080, 0.29100063, 0.38038844, 0.00000000, 0.00000000, 0.00000000, 0.96162117, 0.14829824, -0.22513655, 0.05104795
424169656.600452, 0.38548279, 0.25573730, 1.27819824, -0.49732829, 1.24212203, -0.41857941, -180.17272949, 140.47653198, 193.54226685, 0.43554476, -0.02067149, 0.89992970, -0.13201694, 0.20309031, 0.71228343, 0.00000000, 0.00000000, 0.00000000, 0.96321092, 0.14896163, -0.21918823, 0.04462821
424169656.617218, 0.31163025, 0.13349915, 0.83563232, -0.88317985, 1.09692516, -0.45645516, -179.65940857, 140.30543518, 194.04151917, 0.41795769, -0.02178027, 0.90820539, -0.03184928, 0.26849964, 0.55871356, 0.00000000, 0.00000000, 0.00000000, 0.96474193, 0.15289111, -0.20956407, 0.04449959
424169656.632363, 0.31163025, 0.13349915, 0.83563232, -0.60227015, 0.79087788, -0.43302813, -179.65940857, 140.30543518, 194.04151917, 0.40175262, -0.03061387, 0.91523635, -0.06212249, 0.18903062, 0.16691694, 0.00000000, 0.00000000, 0.00000000, 0.96575787, 0.15789213, -0.20005993, 0.04855754
424169656.647922, 0.34843445, -0.04191589, 0.56655884, 0.02126534, 0.40901520, -0.47596015, -180.00161743, 140.64764404, 193.04302979, 0.38836467, -0.03876537, 0.92069000, -0.07673442, 0.17226452, -0.08505771, 0.00000000, 0.00000000, 0.00000000, 0.96636710, 0.16272566, -0.19211571, 0.05240746
424169656.664353, 0.44842529, -0.12275696, 0.53759766, 1.22783444, 0.85378068, -0.53624986, -179.65940857, 140.30543518, 194.37435913, 0.38241541, -0.03970302, 0.92313713, -0.03398096, -0.00221288, -0.35657826, 0.00000000, 0.00000000, 0.00000000, 0.96634957, 0.16654449, -0.18872011, 0.05306755
424169656.679817, 0.52215576, -0.11543274, 1.15652466, 1.56711344, 1.38660012, -0.52497696, -179.31719971, 139.62101746, 193.70869446, 0.37223384, -0.02476345, 0.92780858, 0.07619145, -0.09799351, -0.39021090, 0.00000000, 0.00000000, 0.00000000, 0.96703422, 0.16955561, -0.18454326, 0.04516083
424169656.695083, 0.39761353, 0.03776550, 1.47564697, 1.05989151, 1.56906021, -0.34565887, -178.63278198, 139.27880859, 193.37585449, 0.35472772, 0.00071672, 0.93496937, 0.11664680, -0.16619828, -0.03302236, 0.00000000, 0.00000000, 0.00000000, 0.96851600, 0.17164335, -0.17761650, 0.03110773
424169656.711265, 0.39761353, 0.03776550, 1.47564697, 0.28023059, 1.85922306, -0.16738500, -177.77726746, 139.79211426, 194.20793152, 0.33136007, 0.02165288, 0.94325590, 0.16381814, -0.03060979, 0.35212377, 0.00000000, 0.00000000, 0.00000000, 0.97035674, 0.17330823, -0.16739438, 0.01873990
424169656.726991, 0.20198059, 0.08955383, 1.32786560, -0.33526242, 2.23898531, -0.07901279, -177.77726746, 139.79211426, 194.20793152, 0.30597720, 0.03054828, 0.95154864, 0.09163633, 0.00721722, 0.52409834, 0.00000000, 0.00000000, 0.00000000, 0.97229999, 0.17437611, -0.15517344, 0.01212013
424169656.743495, 0.35263062, 0.09542847, 0.70823669, -0.56136373, 2.26815971, 0.09951620, -176.06622314, 138.08106995, 193.87510681, 0.27343589, 0.02856719, 0.96146590, -0.07145531, 0.06098664, 0.36639968, 0.00000000, 0.00000000, 0.00000000, 0.97465098, 0.17546630, -0.13842563, 0.01026566
424169656.758501, 0.47314453, 0.00508118, 0.29098511, 0.11417504, 1.76458044, 0.43219216, -174.35517883, 137.73886108, 190.87960815, 0.23887314, 0.02012062, 0.97084230, 0.11375748, 0.07530785, -0.26260561, 0.00000000, 0.00000000, 0.00000000, 0.97699201, 0.17580605, -0.12020975, 0.01133407
424169656.774520, 0.02990723, 0.06144714, 0.74757385, 1.22331559, 2.81809102, 0.76512991, -173.15745544, 138.59439087, 191.04602051, 0.20897284, 0.01596311, 0.97779113, 0.25707635, 0.08730837, -0.67169982, 0.00000000, 0.00000000, 0.00000000, 0.97915780, 0.17362483, -0.10485889, 0.01044219
424169656.790560, 0.02990723, 0.06144714, 0.74757385, 1.74280085, 2.76949312, 0.72667573, -174.52629089, 136.54113770, 190.38035583, 0.17429906, 0.02676529, 0.98432893, 0.04365749, -0.10917801, -0.27474946, 0.00000000, 0.00000000, 0.00000000, 0.98184595, 0.16775877, -0.08850596, 0.00149209
424169656.805908, -0.04382324, 0.08703613, 1.07682800, 2.07799669, 0.96512878, 0.48938568, -173.15745544, 134.83009338, 189.71469116, 0.12728475, 0.04939568, 0.99063545, -0.10360310, 0.04954231, -0.48495921, 0.00000000, 0.00000000, 0.00000000, 0.98463435, 0.16066404, -0.06694598, -0.01415960
424169656.822409, -0.02267456, 0.07659912, 1.31935120, 1.28942217, -0.43756536, 0.41467256, -172.47303772, 135.17230225, 191.71170044, 0.10673864, 0.08289717, 0.99082536, -0.15056188, 0.00413896, 0.08600263, 0.00000000, 0.00000000, 0.00000000, 0.98562979, 0.15474691, -0.05928841, -0.03274443
424169656.837808, -0.16784668, 0.10540771, 1.66404724, 1.05720145, -0.40042118, 0.36398621, -172.47303772, 135.17230225, 191.71170044, 0.10629303, 0.10472462, 0.98880458, -0.12896760, -0.02812550, 0.33054659, 0.00000000, 0.00000000, 0.00000000, 0.98574902, 0.15066911, -0.06061783, -0.04385404
424169656.853255, -0.21305847, 0.06324768, 1.61730957, 0.36917698, -0.28134007, 0.13416526, -172.13082886, 135.85671997, 191.04602051, 0.11580630, 0.12194071, 0.98575824, -0.25345585, 0.04604330, 0.57851177, 0.00000000, 0.00000000, 0.00000000, 0.98551928, 0.14707442, -0.06650542, -0.05194125
424169656.869132, -0.21305847, 0.06324768, 1.61730957, -0.29198099, 0.35922182, -0.30896983, -171.27529907, 136.02783203, 191.87811279, 0.12018948, 0.13083054, 0.98409241, -0.30236417, -0.09066941, 0.60385925, 0.00000000, 0.00000000, 0.00000000, 0.98540830, 0.14497135, -0.06925201, -0.05619570
424169656.884931, -0.14935303, 0.12852478, 1.38993835, -0.55489145, 1.26299776, -0.68303238, -172.64413452, 136.71224976, 189.54827881, 0.11938968, 0.12946081, 0.98437089, -0.30832401, -0.06470251, 0.54713851, 0.00000000, 0.00000000, 0.00000000, 0.98531739, 0.14606529, -0.06881095, -0.05549431
424169656.901444, -0.03807068, 0.18833923, 1.22846985, -0.92920407, 1.87092499, -0.86184580, -172.81524658, 136.54113770, 190.71319580, 0.10299219, 0.12281653, 0.98707080, -0.25234523, 0.00570824, 0.40286759, 0.00000000, 0.00000000, 0.00000000, 0.98537745, 0.15022204, -0.06035816, -0.05311786
424169656.916377, 0.05061340, 0.23826599, 1.03680420, -1.20402871, 1.96668987, -0.90850598, -172.64413452, 138.08106995, 190.21394348, 0.07474903, 0.11116546, 0.99098676, -0.11281971, 0.07717378, 0.23748305, 0.00000000, 0.00000000, 0.00000000, 0.98546148, 0.15607392, -0.04571217, -0.04916301
424169656.932195, 0.18222046, 0.16870117, 0.74980164, -1.20402871, 1.96668987, -0.90850598, -172.64413452, 138.08106995, 190.21394348, 0.04269098, 0.09421659, 0.99463600, -0.03892206, 0.10871004, 0.14255580, 0.00000000, 0.00000000, 0.00000000, 0.98534007, 0.16255132, -0.02876724, -0.04306345
424169656.948168, 0.18222046, 0.16870117, 0.74980164, -0.72125646, 0.83892770, -0.50795563, -170.59088135, 139.10769653, 190.21394348, 0.01416336, 0.07485431, 0.99709392, 0.13131393, 0.10106426, -0.12990639, 0.00000000, 0.00000000, 0.00000000, 0.98494660, 0.16860351, -0.01330476, -0.03572166
424169656.964478, 0.22106934, 0.16676331, 0.64790344, -0.16644171, -0.08941643, -0.26393950, -171.78862000, 138.59439087, 190.71319580, -0.00367998, 0.06057192, 0.99815702, 0.19525407, 0.11406492, -0.32280305, 0.00000000, 0.00000000, 0.00000000, 0.98447636, 0.17287230, -0.00342734, -0.03016169
424169656.980324, 0.26950073, 0.20422363, 0.75080872, 0.08517881, -1.05433296, 0.02751232, -172.47303772, 138.93659973, 190.71319580, -0.00736419, 0.05486110, 0.99846685, 0.22843353, 0.11190221, -0.35056341, 0.00000000, 0.00000000, 0.00000000, 0.98411027, 0.17538642, -0.00118827, -0.02766168
424169656.995143, 0.24475098, 0.15354919, 0.96881104, -0.18322309, -1.05536706, 0.38200569, -172.64413452, 138.42327881, 190.87960815, 0.00414714, 0.05528660, 0.99846190, 0.26535359, 0.14893703, -0.24765320, 0.00000000, 0.00000000, 0.00000000, 0.98399960, 0.17599925, -0.00691090, -0.02685670
424169657.011021, 0.16357422, 0.09626770, 0.86067200, -0.18126300, -0.16107997, 0.60180037, -172.30192566, 139.79211426, 188.54977417, 0.02315969, 0.05384133, 0.99828088, 0.25923473, 0.11205222, -0.07829798, 0.00000000, 0.00000000, 0.00000000, 0.98430068, 0.17404777, -0.01609737, -0.02450365
424169657.027323, 0.16357422, 0.09626770, 0.86067200, -0.00647281, 0.98114503, 0.67274245, -170.59088135, 138.76548767, 188.54977417, 0.03104927, 0.04987839, 0.99827254, 0.17325066, 0.07730362, -0.13258041, 0.00000000, 0.00000000, 0.00000000, 0.98503771, 0.16981459, -0.01954427, -0.02194869
424169657.043244, 0.08570862, 0.05097961, 0.74267578, 0.17944513, 1.47587088, 0.61660169, -170.59088135, 138.76548767, 188.54977417, 0.02224512, 0.04854697, 0.99857318, 0.11717444, 0.00012857, -0.15410599, 0.00000000, 0.00000000, 0.00000000, 0.98601955, 0.16447497, -0.01497012, -0.02212053
424169657.059028, -0.02603149, 0.08569336, 0.74433899, 0.65228671, 1.86697233, 0.47792556, -169.22206116, 137.73886108, 190.87960815, 0.00118651, 0.04978107, 0.99875945, 0.08452211, 0.00119854, -0.25608367, 0.00000000, 0.00000000, 0.00000000, 0.98695535, 0.15905617, -0.00454733, -0.02448668
424169657.074665, -0.05769348, 0.14324951, 0.90556335, 1.28132829, 0.40418636, 0.24242116, -169.22206116, 136.37004089, 189.21545410, -0.02609840, 0.05719165, 0.99802202, 0.00006691, 0.02850171, -0.25368306, 0.00000000, 0.00000000, 0.00000000, 0.98751348, 0.15436369, 0.00848049, -0.03028304
424169657.090642, -0.01354980, 0.14236450, 1.07836914, 1.05757536, 0.58080108, 0.10104113, -168.87985229, 134.31678772, 190.87960815, -0.04088392, 0.07427033, 0.99639970, 0.00455274, 0.00817291, -0.43556294, 0.00000000, 0.00000000, 0.00000000, 0.98753497, 0.15157355, 0.01458470, -0.03984246
424169657.106181, -0.01354980, 0.14236450, 1.07836914, -2.15858900, -2.23741431, -0.17510790, -171.10420227, 135.51451111, 189.71469116, -0.04778618, 0.09290753, 0.99452734, -0.00882393, 0.06390704, 0.20406578, 0.00000000, 0.00000000, 0.00000000, 0.98725213, 0.15032272, 0.01665101, -0.04958895
424169657.121838, -0.19468689, 0.69093323, 1.98234558, -0.00856126, -0.24049117, -0.01341594, -168.87985229, 137.05444336, 188.88261414, -0.03641195, 0.08835627, 0.99542320, 0.14210957, -0.07872798, 1.46134865, 0.00000000, 0.00000000, 0.00000000, 0.98740621, 0.15079979, 0.01134059, -0.04647357
424169657.138474, 0.15835571, -0.08250427, 0.94917297, -0.27935095, 0.64645732, 0.09866026, -168.87985229, 137.05444336, 188.88261414, -0.02228135, 0.07440060, 0.99697948, -0.17240554, 0.61653262, 0.98536611, 0.00000000, 0.00000000, 0.00000000, 0.98773505, 0.15122570, 0.00538653, -0.03848692
424169657.153663, 0.10296631, 0.20353699, 0.59571838, -1.40652296, -1.25784694, -0.03684430, -169.39315796, 135.85671997, 190.04753113, -0.03418285, 0.07520451, 0.99658209, 0.19253856, -0.15770878, -0.04740909, 0.00000000, 0.00000000, 0.00000000, 0.98779004, 0.15020610, 0.01125388, -0.03977835
424169657.169409, 0.15341187, -0.06207275, 0.88191223, 0.44602835, -0.17402160, 0.19146131, -170.41978455, 138.25218201, 190.38035583, -0.02116158, 0.05620961, 0.99819469, 0.10204842, 0.07591625, -0.21538831, 0.00000000, 0.00000000, 0.00000000, 0.98818337, 0.15030295, 0.00623715, -0.02938955
424169657.185391, 0.15341187, -0.06207275, 0.88191223, -0.21661327, -0.22684620, 0.31401892, -171.95971680, 138.42327881, 189.88111877, -0.01150323, 0.05285403, 0.99853599, 0.17461967, 0.09306577, -0.52177513, 0.00000000, 0.00000000, 0.00000000, 0.98838651, 0.14953295, 0.00173438, -0.02699992
424169657.201264, -0.17317200, 0.13632202, 0.67971802, -0.04534911, -0.13374741, 0.23006969, -171.95971680, 139.79211426, 190.87960815, -0.00986544, 0.05501080, 0.99843705, -0.00315031, -0.05566692, -0.07605848, 0.00000000, 0.00000000, 0.00000000, 0.98872798, 0.14709011, 0.00083200, -0.02794275
424169657.216768, -0.21899414, 0.03849792, 1.00706482, -0.34621574, -0.01803945, -0.01438933, -172.30192566, 139.44990540, 190.87960815, -0.00543962, 0.05140747, 0.99866295, -0.16773239, 0.08491455, -0.31894493, 0.00000000, 0.00000000, 0.00000000, 0.98910477, 0.14492493, -0.00103563, -0.02583513
424169657.233169, 0.12277222, -0.00286865, 0.92205811, 0.05645742, -0.30173828, -0.04518506, -172.47303772, 139.27880859, 190.38035583, -0.00708499, 0.04109039, 0.99913031, -0.21190916, -0.00259247, 0.00793451, 0.00000000, 0.00000000, 0.00000000, 0.98927018, 0.14460175, 0.00053384, -0.02084606
424169657.248339, 0.13253784, 0.09445190, 1.07260132, -0.30691014, -0.72473641, -0.06185884, -172.47303772, 139.27880859, 190.38035583, -0.00316608, 0.04155262, 0.99913132, 0.12593830, -0.04442127, -0.07707319, 0.00000000, 0.00000000, 0.00000000, 0.98924564, 0.14477126, -0.00144243, -0.02079108
424169657.264859, 0.04043579, 0.02731323, 0.98196411, -0.07422203, -0.37326733, -0.02446540, -173.15745544, 139.27880859, 192.04452515, 0.00628804, 0.03839813, 0.99924272, 0.15351726, 0.02802338, -0.05039020, 0.00000000, 0.00000000, 0.00000000, 0.98921694, 0.14515926, -0.00589927, -0.01854268
424169657.280561, 0.04043579, 0.02731323, 0.98196411, -0.25541153, -0.43386729, 0.02035081, -173.49966431, 140.64764404, 189.04902649, 0.01495004, 0.03512929, 0.99927098, 0.06738638, 0.04143931, 0.04702422, 0.00000000, 0.00000000, 0.00000000, 0.98917918, 0.14546483, -0.00995280, -0.01629317
424169657.295372, -0.13052368, 0.04122925, 0.94012451, -0.35594746, 0.25762834, 0.00873330, -171.44641113, 138.93659973, 189.71469116, 0.02092234, 0.03285484, 0.99924111, 0.01951345, -0.00554161, -0.01727701, 0.00000000, 0.00000000, 0.00000000, 0.98919637, 0.14529658, -0.01273984, -0.01473556
424169657.311685, -0.13197327, 0.04481506, 0.97538757, -0.35226830, 1.06056555, -0.01041030, -172.47303772, 137.90997314, 189.04902649, 0.02204545, 0.02668381, 0.99940079, -0.15256913, 0.01454544, -0.05927629, 0.00000000, 0.00000000, 0.00000000, 0.98927117, 0.14506192, -0.01284371, -0.01160326
424169657.327251, -0.08436584, 0.01333618, 1.06350708, -0.22090176, 0.44804969, -0.03556066, -171.44641113, 138.25218201, 190.71319580, 0.00847567, 0.02130511, 0.99973708, -0.14044893, 0.02350995, -0.02434952, 0.00000000, 0.00000000, 0.00000000, 0.98937774, 0.14491456, -0.00573728, -0.00992658
424169657.344523, -0.05865479, 0.01455688, 0.85284424, -0.29855447, 0.14939268, -0.07860160, -169.73536682, 138.59439087, 189.04902649, -0.00670628, 0.01793791, 0.99981660, -0.07080837, 0.14348483, 0.19743375, 0.00000000, 0.00000000, 0.00000000, 0.98940733, 0.14484973, 0.00201866, -0.00936051
424169657.359110, -0.05865479, 0.01455688, 0.85284424, -0.05745637, -0.21473654, -0.04492114, -169.73536682, 138.59439087, 189.04902649, -0.00643081, 0.01470853, 0.99987113, 0.02425307, 0.03718661, 0.08580696, 0.00000000, 0.00000000, 0.00000000, 0.98936223, 0.14525136, 0.00211312, -0.00774357
424169657.374587, -0.00930786, 0.01893616, 1.09655762, -0.20888690, -0.25809387, -0.01696434, -170.76199341, 138.93659973, 189.04902649, -0.00603661, 0.01191789, 0.99991077, -0.05261817, 0.00263899, -0.14706652, 0.00000000, 0.00000000, 0.00000000, 0.98934214, 0.14545620, 0.00211947, -0.00633475
424169657.391755, 0.00054932, -0.00886536, 0.95619202, -0.26356826, -0.43756775, -0.01936757, -171.44641113, 138.93659973, 189.38186646, -0.00218396, 0.00936365, 0.99995375, -0.00712390, 0.00957251, 0.09660384, 0.00000000, 0.00000000, 0.00000000, 0.98934384, 0.14551854, 0.00039906, -0.00479095
424169657.406281, 0.03887939, 0.01147461, 1.04026794, 0.01783759, -0.27428109, 0.02004748, -170.59088135, 139.10769653, 189.54827881, 0.00414856, 0.00485430, 0.99997962, -0.00359924, -0.01371965, -0.04378759, 0.00000000, 0.00000000, 0.00000000, 0.98934559, 0.14555108, -0.00240548, -0.00209940
424169657.422889, 0.04583740, 0.02384949, 1.02685547, 0.04302869, 0.26731053, 0.03982811, -170.07757568, 139.27880859, 190.71319580, 0.01043955, 0.00415202, 0.99993688, 0.02309927, -0.02008219, -0.18359168, 0.00000000, 0.00000000, 0.00000000, 0.98936606, 0.14533841, -0.00546616, -0.00129534
424169657.438139, 0.04583740, 0.02384949, 1.02685547, 0.02709367, 0.45320184, 0.07419034, -171.10420227, 139.96322632, 190.71319580, 0.00797697, 0.00375448, 0.99996114, 0.02693514, -0.00325094, -0.14128804, 0.00000000, 0.00000000, 0.00000000, 0.98942671, 0.14496674, -0.00421853, -0.00127922
424169657.453696, -0.04383850, 0.03234863, 1.04818726, 0.01741068, 0.13665239, 0.02923192, -171.10420227, 139.96322632, 190.71319580, 0.00117748, 0.00420069, 0.99999046, 0.04465992, 0.01964879, 0.02686499, 0.00000000, 0.00000000, 0.00000000, 0.98953422, 0.14428191, -0.00088563, -0.00199343
424169657.470299, 0.02136230, 0.11647034, 0.99877930, -0.01039592, -0.27533863, 0.01275201, -169.56427002, 138.08106995, 190.54678345, -0.00286759, 0.00449312, 0.99998581, -0.04097091, 0.02785551, 0.04820146, 0.00000000, 0.00000000, 0.00000000, 0.98960517, 0.14378632, 0.00109587, -0.00242939
424169657.485313, 0.03866577, -0.00494385, 0.98869324, -0.00959297, -0.35545078, 0.08358358, -172.30192566, 138.76548767, 190.87960815, -0.00060123, 0.00417676, 0.99999112, 0.02196354, 0.11229358, -0.00121180, 0.00000000, 0.00000000, 0.00000000, 0.98964125, 0.14354701, -0.00000228, -0.00210991
424169657.502634, 0.02622986, -0.00874329, 0.96652222, 0.01280927, 0.02178306, 0.13783483, -172.13082886, 140.30543518, 190.71319580, 0.01019289, 0.01098830, 0.99988765, 0.05851743, 0.09245103, 0.00250796, 0.00000000, 0.00000000, 0.00000000, 0.98969344, 0.14300609, -0.00582994, -0.00470897
424169657.516978, 0.02622986, -0.00874329, 0.96652222, 0.01904320, 0.55770455, 0.16779752, -173.15745544, 141.33206177, 190.04753113, 0.01205859, 0.01062615, 0.99987084, 0.02297559, 0.00258796, -0.07340293, 0.00000000, 0.00000000, 0.00000000, 0.98985031, 0.14188649, -0.00672239, -0.00440396
424169657.533343, -0.05598450, -0.02638245, 0.79306030, 0.31274486, 0.36896685, 0.10718957, -171.78862000, 142.01647949, 190.71319580, 0.00607871, 0.01060402, 0.99992532, 0.02015115, -0.01934730, -0.03340308, 0.00000000, 0.00000000, 0.00000000, 0.99007317, 0.14041996, -0.00375383, -0.00482277
424169657.548533, -0.07342529, 0.01292419, 1.11062622, -0.24519857, -0.03749118, -0.05090419, -171.78862000, 142.01647949, 190.71319580, -0.00428769, 0.01127442, 0.99992722, -0.05169681, -0.03765687, -0.20686695, 0.00000000, 0.00000000, 0.00000000, 0.99024531, 0.13920435, 0.00133826, -0.00588087
424169657.564677, -0.01698303, 0.00738525, 0.82432556, 0.05744998, 0.05320330, -0.02877306, -172.30192566, 139.79211426, 191.87811279, -0.00473542, 0.01111435, 0.99992704, -0.06868988, 0.00180984, 0.11069920, 0.00000000, 0.00000000, 0.00000000, 0.99026183, 0.13908636, 0.00157178, -0.00583259
424169657.580369, -0.04820251, 0.06283569, 1.09713745, 0.10382387, -0.00105941, -0.08040589, -173.15745544, 139.62101746, 191.04602051, -0.00411371, 0.01026093, 0.99993891, 0.00783686, -0.00302826, -0.12455742, 0.00000000, 0.00000000, 0.00000000, 0.99024557, 0.13922343, 0.00132255, -0.00536694
424169657.595709, -0.04820251, 0.06283569, 1.09713745, 0.02552320, 0.01402634, -0.16477084, -171.95971680, 138.76548767, 190.87960815, -0.00549260, 0.01263714, 0.99990505, -0.05543574, 0.00239277, 0.12663607, 0.00000000, 0.00000000, 0.00000000, 0.99020107, 0.13947891, 0.00183817, -0.00664002
424169657.611944, -0.01885986, -0.00891113, 1.00450134, 0.15006034, -0.02114044, -0.26880750, -171.10420227, 139.27880859, 189.38186646, -0.00547617, 0.01179627, 0.99991542, -0.02049429, 0.09733459, -0.18370754, 0.00000000, 0.00000000, 0.00000000, 0.99008193, 0.14034058, 0.00188326, -0.00622417
424169657.627366, -0.00041199, -0.03007507, 1.00296021, 0.08653063, -0.01360795, -0.23908422, -170.93309021, 139.10769653, 189.54827881, -0.00542614, 0.01391955, 0.99988842, -0.01343372, -0.02283068, 0.00461295, 0.00000000, 0.00000000, 0.00000000, 0.98982841, 0.14207011, 0.00169679, -0.00727483
424169657.644356, 0.00213623, -0.00811768, 1.00337219, 0.05817223, -0.00603765, -0.17174832, -170.07757568, 137.22555542, 189.38186646, -0.00485224, 0.01216164, 0.99991429, 0.00444025, -0.04223672, 0.00304593, 0.00000000, 0.00000000, 0.00000000, 0.98955646, 0.14399705, 0.00152523, -0.00636694
424169657.659173, -0.00814819, 0.02755737, 1.00521851, 0.06595851, -0.01608762, -0.09036319, -170.07757568, 137.22555542, 189.38186646, -0.00465616, 0.01300332, 0.99990463, 0.01404032, -0.02737710, -0.00185774, 0.00000000, 0.00000000, 0.00000000, 0.98934990, 0.14539282, 0.00135806, -0.00677122
424169657.674980, -0.00814819, 0.02755737, 1.00521851, 0.01773133, 0.00576175, 0.00377237, -169.90646362, 136.02783203, 189.21545410, -0.00442215, 0.01386500, 0.99989408, 0.00619217, -0.00898219, -0.00390716, 0.00000000, 0.00000000, 0.00000000, 0.98923541, 0.14615178, 0.00117414, -0.00718141
424169657.691138, 0.00405884, 0.03228760, 1.04365540, -0.11502645, 0.02533518, 0.03181066, -169.73536682, 137.90997314, 187.71769714, -0.00456080, 0.01513579, 0.99987507, -0.00680700, 0.01702974, 0.03062727, 0.00000000, 0.00000000, 0.00000000, 0.98921302, 0.14627075, 0.00114891, -0.00782030
424169657.706625, 0.01333618, 0.05830383, 1.03231812, -0.21026110, 0.04133173, 0.08113081, -169.22206116, 139.44990540, 188.54977417, -0.00482002, 0.01385156, 0.99989247, 0.00887886, 0.01843604, 0.04376295, 0.00000000, 0.00000000, 0.00000000, 0.98926423, 0.14595380, 0.00137337, -0.00720356
424169657.722380, 0.01171875, 0.09994507, 0.89483643, -0.01547270, 0.00039654, 0.05105546, -169.73536682, 139.62101746, 190.04753113, -0.00414920, 0.01350810, 0.99990016, 0.01748538, 0.04479573, 0.03241796, 0.00000000, 0.00000000, 0.00000000, 0.98936931, 0.14525307, 0.00107155, -0.00698394
424169657.738225, -0.02673340, -0.00531006, 0.94512939, -0.04377145, -0.01255494, 0.00748002, -170.07757568, 139.96322632, 190.38035583, -0.00434947, 0.01131221, 0.99992657, 0.01860118, 0.12392644, -0.07361124, 0.00000000, 0.00000000, 0.00000000, 0.98947100, 0.14460438, 0.00133399, -0.00591124
424169657.753962, -0.02673340, -0.00531006, 0.94512939, 0.04003503, 0.01414059, 0.05768380, -170.07757568, 139.96322632, 190.38035583, -0.00432193, 0.01105812, 0.99992949, -0.05138791, -0.04877784, 0.08323088, 0.00000000, 0.00000000, 0.00000000, 0.98952350, 0.14424976, 0.00134081, -0.00578306
424169657.770185, -0.02153015, -0.04168701, 1.03071594, -0.01457042, -0.00992960, 0.08115318, -170.59088135, 139.79211426, 190.54678345, -0.00490881, 0.00884080, 0.99994886, -0.01019739, -0.03191208, -0.01955641, 0.00000000, 0.00000000, 0.00000000, 0.98958507, 0.14386043, 0.00179297, -0.00472757
424169657.785571, -0.05769348, -0.03930664, 0.99075317, 0.05633598, 0.00595190, 0.06935591, -171.78862000, 140.30543518, 190.04753113, -0.00471537, 0.00857291, 0.99995214, -0.01681478, -0.05025992, 0.03076381, 0.00000000, 0.00000000, 0.00000000, 0.98968810, 0.14315560, 0.00171978, -0.00457988
424169657.802513, -0.02023315, 0.00367737, 0.92021179, 0.11650424, -0.00666589, -0.03148416, -172.64413452, 138.42327881, 189.21545410, -0.00478811, 0.00902221, 0.99994785, -0.05290537, -0.04832885, -0.00919466, 0.00000000, 0.00000000, 0.00000000, 0.98980092, 0.14236590, 0.00172746, -0.00480605
424169657.817207, -0.02745056, 0.01576233, 1.13011169, 0.23412568, -0.02163738, -0.08404537, -171.78862000, 140.98985291, 190.38035583, -0.00694912, 0.01009646, 0.99992490, -0.03594334, -0.00223818, -0.01986812, 0.00000000, 0.00000000, 0.00000000, 0.98981215, 0.14224747, 0.00272116, -0.00549125
424169657.833155, -0.02745056, 0.01576233, 1.13011169, 0.00057045, 0.00979111, -0.11621875, -171.78862000, 140.30543518, 191.04602051, -0.00667638, 0.01350406, 0.99988651, -0.00270777, -0.00637821, -0.02304937, 0.00000000, 0.00000000, 0.00000000, 0.98974776, 0.14262761, 0.00234107, -0.00715933
424169657.848795, -0.01400757, 0.04219055, 0.98591614, -0.00169111, 0.01804611, -0.10446596, -171.44641113, 138.93659973, 190.04753113, -0.00672678, 0.01410115, 0.99987793, -0.01588674, 0.00573527, -0.00236513, 0.00000000, 0.00000000, 0.00000000, 0.98964581, 0.14331833, 0.00231823, -0.00746006
424169657.865040, -0.02848816, 0.04443359, 0.99075317, -0.06602349, 0.04893745, -0.07319672, -171.44641113, 138.93659973, 190.04753113, -0.00728598, 0.01575312, 0.99984938, -0.00672159, 0.02643743, -0.01393323, 0.00000000, 0.00000000, 0.00000000, 0.98953496, 0.14403211, 0.00247058, -0.00831947
424169657.880382, -0.02139282, 0.01269531, 0.93975830, -0.11369035, 0.02984818, 0.00745872, -171.27529907, 138.76548767, 189.54827881, -0.00796381, 0.01455806, 0.99986231, -0.02052435, 0.02987554, -0.00910914, 0.00000000, 0.00000000, 0.00000000, 0.98947747, 0.14444895, 0.00288876, -0.00777815
424169657.895926, -0.03784180, 0.04470825, 1.04124451, 0.12726395, 0.00378249, -0.03119760, -168.87985229, 138.42327881, 189.54827881, -0.00925996, 0.01265297, 0.99987710, -0.01213286, 0.00004234, -0.06011877, 0.00000000, 0.00000000, 0.00000000, 0.98947256, 0.14450811, 0.00366724, -0.00692938
424169657.912250, -0.03784180, 0.04470825, 1.04124451, -0.01259409, 0.00304985, -0.08504405, -171.27529907, 137.73886108, 188.21694946, -0.00938530, 0.01339197, 0.99986625, -0.00964241, -0.00187158, -0.09410456, 0.00000000, 0.00000000, 0.00000000, 0.98946480, 0.14454252, 0.00367560, -0.00730422
424169657.927625, 0.00999451, -0.01734924, 0.93933105, -0.01106570, -0.02911820, 0.00056193, -169.39315796, 137.90997314, 191.37886047, -0.00935849, 0.01394363, 0.99985898, 0.00645932, -0.02110000, 0.03703677, 0.00000000, 0.00000000, 0.00000000, 0.98939632, 0.14499795, 0.00361898, -0.00757690
424169657.944315, -0.02049255, 0.01344299, 0.99645996, -0.30231779, 0.00389647, -0.01472915, -168.36653137, 138.59439087, 189.71469116, -0.00891367, 0.01412912, 0.99986047, 0.01890817, -0.03147836, -0.06052939, 0.00000000, 0.00000000, 0.00000000, 0.98940549, 0.14493789, 0.00338593, -0.00763621
424169657.959885, -0.02969360, 0.02252197, 1.10221863, -0.02226243, 0.00235503, -0.01648763, -170.07757568, 138.25218201, 189.04902649, -0.00968611, 0.00956652, 0.99990731, -0.01080645, 0.00387648, -0.00344737, 0.00000000, 0.00000000, 0.00000000, 0.98941891, 0.14492716, 0.00409878, -0.00543479
424169657.975215, -0.01884460, 0.02079773, 1.04444885, 0.12505698, 0.01794491, -0.00770666, -170.07757568, 138.25218201, 189.04902649, -0.01008627, 0.00943660, 0.99990463, -0.01960733, 0.01308537, 0.10231403, 0.00000000, 0.00000000, 0.00000000, 0.98941852, 0.14492510, 0.00430618, -0.00539951
424169657.992297, -0.01986694, 0.01019287, 1.00666809, 0.01672572, 0.01507056, -0.00190230, -170.41978455, 138.93659973, 189.71469116, -0.00988007, 0.00998518, 0.99990135, 0.00435638, -0.00330183, -0.11945394, 0.00000000, 0.00000000, 0.00000000, 0.98942222, 0.14489421, 0.00416459, -0.00565584
424169658.007045, -0.01986694, 0.01019287, 1.00666809, -0.04362364, -0.00801425, -0.01339197, -171.44641113, 139.96322632, 189.71469116, -0.01011270, 0.01106877, 0.99988759, -0.00584799, 0.00974422, 0.02431284, 0.00000000, 0.00000000, 0.00000000, 0.98943533, 0.14478099, 0.00420189, -0.00620833
424169658.022548, -0.01358032, 0.00563049, 0.94639587, -0.04345959, 0.00009934, -0.02256576, -172.30192566, 140.13432312, 191.21244812, -0.01054867, 0.01065871, 0.99988753, -0.00931828, -0.00046584, 0.00678054, 0.00000000, 0.00000000, 0.00000000, 0.98944214, 0.14473433, 0.00444756, -0.00603681
424169658.038794, -0.01792908, 0.00708008, 0.97940063, 0.02719407, 0.00802410, 0.00041758, -173.32855225, 140.81874084, 190.21394348, -0.01036588, 0.00927926, 0.99990320, -0.00321444, -0.00364877, -0.05350734, 0.00000000, 0.00000000, 0.00000000, 0.98944049, 0.14477269, 0.00445674, -0.00534125
424169658.054478, -0.01403809, 0.02079773, 1.01521301, 0.08453086, -0.01453686, -0.01099965, -172.13082886, 139.62101746, 191.37886047, -0.01089405, 0.00909331, 0.99989933, -0.00703503, -0.00201323, -0.02049868, 0.00000000, 0.00000000, 0.00000000, 0.98945478, 0.14466820, 0.00473207, -0.00528699
424169658.073145, -0.01795959, 0.01969910, 1.00572205, 0.00724833, 0.01163429, 0.00026978, -174.18408203, 141.33206177, 188.71620178, -0.01071074, 0.00996474, 0.99989301, -0.00172518, 0.00138780, -0.02148417, 0.00000000, 0.00000000, 0.00000000, 0.98945873, 0.14463026, 0.00457856, -0.00570470
424169658.085779, -0.01795959, 0.01969910, 1.00572205, -0.03180294, -0.00697535, -0.02372637, -174.18408203, 141.33206177, 188.71620178, -0.01075688, 0.01033900, 0.99988872, -0.00376949, 0.01286962, 0.02780601, 0.00000000, 0.00000000, 0.00000000, 0.98947444, 0.14451533, 0.00457501, -0.00589268
424169658.102329, -0.01216125, 0.01158142, 0.98313904, -0.00939909, -0.00237714, -0.01526817, -170.93309021, 139.44990540, 192.21093750, -0.01106045, 0.01014047, 0.99988741, -0.00689914, 0.00955862, 0.00583463, 0.00000000, 0.00000000, 0.00000000, 0.98947492, 0.14450980, 0.00473959, -0.00581637
424169658.117360, -0.01342773, 0.00498962, 0.98684692, 0.03558276, 0.01611479, -0.00517932, -171.95971680, 141.16094971, 190.87960815, -0.01092183, 0.00964237, 0.99989384, -0.00123942, 0.00193905, -0.01675482, 0.00000000, 0.00000000, 0.00000000, 0.98947628, 0.14451165, 0.00470698, -0.00555991
424169658.133429, -0.01605225, 0.01518250, 1.02067566, 0.05045252, -0.01443114, -0.02415620, -171.27529907, 139.10769653, 191.21244812, -0.01121247, 0.00964614, 0.99989063, -0.00221527, -0.00465652, -0.01304369, 0.00000000, 0.00000000, 0.00000000, 0.98949268, 0.14439372, 0.00485117, -0.00558220
424169658.149057, -0.01473999, 0.01626587, 0.98667908, -0.02924284, 0.00705498, -0.01764584, -169.73536682, 138.25218201, 189.71469116, -0.01106784, 0.01025239, 0.99988621, -0.00707486, -0.00295869, -0.01174227, 0.00000000, 0.00000000, 0.00000000, 0.98949572, 0.14436523, 0.00473602, -0.00587159
424169658.165157, -0.01473999, 0.01626587, 0.98667908, -0.01165399, 0.00346477, -0.01635847, -169.73536682, 138.25218201, 189.71469116, -0.01101541, 0.00994937, 0.99988985, -0.00326682, 0.00302060, 0.01947357, 0.00000000, 0.00000000, 0.00000000, 0.98948863, 0.14442007, 0.00473163, -0.00571813
424169658.180576, -0.01356506, 0.01821899, 0.98370361, 0.02231969, -0.00846326, -0.02784175, -170.93309021, 138.76548767, 191.21244812, -0.01122939, 0.00976461, 0.99988925, -0.00351060, 0.00650126, -0.01321019, 0.00000000, 0.00000000, 0.00000000, 0.98949348, 0.14438591, 0.00485104, -0.00564200
424169658.195980, -0.01080322, 0.01640320, 0.99415588, 0.03417528, -0.00148045, -0.02061819, -170.24867249, 138.08106995, 190.21394348, -0.01129863, 0.01027324, 0.99988341, -0.00226644, 0.00794575, -0.01617978, 0.00000000, 0.00000000, 0.00000000, 0.98948454, 0.14443697, 0.00484827, -0.00589892
424169658.212136, -0.01457214, 0.01324463, 1.01164246, 0.01527909, -0.00365625, -0.01154054, -169.22206116, 138.08106995, 189.88111877, -0.01114009, 0.01110665, 0.99987626, 0.00033687, 0.00529655, -0.00572038, 0.00000000, 0.00000000, 0.00000000, 0.98947646, 0.14448000, 0.00470938, -0.00630004
424169658.227524, -0.01473999, 0.00772095, 0.98713684, -0.00695058, 0.00224398, -0.02098544, -169.73536682, 135.85671997, 189.71469116, -0.01133562, 0.01139982, 0.99987078, -0.00668501, 0.00195162, 0.00232650, 0.00000000, 0.00000000, 0.00000000, 0.98947782, 0.14446118, 0.00478507, -0.00645913
424169658.243603, -0.01473999, 0.00772095, 0.98713684, 0.00833250, 0.00338514, -0.01149580, -170.59088135, 137.73886108, 189.88111877, -0.01156344, 0.01104731, 0.99987209, -0.00364957, -0.00190729, 0.00325594, 0.00000000, 0.00000000, 0.00000000, 0.98947098, 0.14451035, 0.00492293, -0.00630142
424169658.260810, -0.01528931, 0.01089478, 0.99165344, 0.02472718, -0.00256862, -0.01607937, -169.90646362, 139.10769653, 187.88410950, -0.01196505, 0.01068829, 0.99987131, -0.00599455, -0.00170086, -0.01471809, 0.00000000, 0.00000000, 0.00000000, 0.98947122, 0.14450725, 0.00514760, -0.00615279
424169658.275516, -0.01205444, 0.01861572, 1.00192261, 0.02129757, 0.00567866, -0.00666669, -169.90646362, 139.10769653, 187.88410950, -0.01200710, 0.01078605, 0.99986976, -0.00328221, 0.00010872, -0.00821629, 0.00000000, 0.00000000, 0.00000000, 0.98946822, 0.14452510, 0.00516123, -0.00620429
424169658.291768, -0.01525879, 0.01893616, 0.99621582, 0.00240217, -0.00130149, -0.01978276, -171.27529907, 138.42327881, 188.88261414, -0.01218379, 0.01142295, 0.99986053, 0.00012934, 0.00719277, 0.00206208, 0.00000000, 0.00000000, 0.00000000, 0.98947476, 0.14446437, 0.00520303, -0.00653188
424169658.306801, -0.01246643, 0.01350403, 0.99041748, 0.00471752, -0.00364880, -0.01979794, -170.41978455, 138.93659973, 190.71319580, -0.01201302, 0.01162574, 0.99986023, 0.00165230, 0.00767663, 0.00381711, 0.00000000, 0.00000000, 0.00000000, 0.98946992, 0.14449705, 0.00510367, -0.00662005
424169658.322749, -0.01246643, 0.01350403, 0.99041748, 0.02002457, -0.00255024, -0.01729190, -171.78862000, 139.62101746, 191.37886047, -0.01202433, 0.01180352, 0.99985802, 0.00025981, 0.00389777, -0.00867762, 0.00000000, 0.00000000, 0.00000000, 0.98946459, 0.14452973, 0.00509621, -0.00670900
424169658.338871, -0.01501465, 0.00917053, 0.99114990, 0.02835148, 0.00324879, -0.01594435, -171.44641113, 140.64764404, 190.38035583, -0.01207420, 0.01181548, 0.99985731, -0.00345925, -0.00163787, -0.01169811, 0.00000000, 0.00000000, 0.00000000, 0.98946175, 0.14454789, 0.00511989, -0.00671861
424169658.354329, -0.01235962, 0.01150513, 1.00415039, 0.01282871, -0.01067555, -0.01633903, -171.61750793, 141.16094971, 190.87960815, -0.01216544, 0.01198704, 0.99985415, -0.00284921, -0.00281650, -0.00870424, 0.00000000, 0.00000000, 0.00000000, 0.98946692, 0.14450706, 0.00515292, -0.00680988
424169658.370392, -0.01655579, 0.01260376, 0.99566650, -0.00101786, 0.00932985, -0.00218299, -171.61750793, 141.16094971, 190.87960815, -0.01216683, 0.01207206, 0.99985313, -0.00019279, -0.00056693, 0.00429728, 0.00000000, 0.00000000, 0.00000000, 0.98947552, 0.14444637, 0.00514788, -0.00685173
424169658.385884, -0.01104736, 0.01593018, 0.98991394, 0.01055491, -0.00600090, -0.01744850, -172.30192566, 139.79211426, 191.21244812, -0.01235551, 0.01190193, 0.99985284, -0.00470382, 0.00144951, -0.00293511, 0.00000000, 0.00000000, 0.00000000, 0.98948180, 0.14440283, 0.00525382, -0.00678096
424169658.401923, -0.01104736, 0.01593018, 0.98991394, 0.01651479, -0.00256702, -0.02314846, -172.13082886, 139.96322632, 191.37886047, -0.01241305, 0.01186504, 0.99985254, -0.00223539, 0.00194416, -0.00818386, 0.00000000, 0.00000000, 0.00000000, 0.98948385, 0.14438830, 0.00528506, -0.00676678
424169658.417992, -0.01242065, 0.01275635, 0.99440002, 0.02222381, -0.01309663, -0.02210077, -171.44641113, 140.30543518, 191.71170044, -0.01237092, 0.01210461, 0.99985021, -0.00450530, 0.00272693, -0.00642675, 0.00000000, 0.00000000, 0.00000000, 0.98947532, 0.14444269, 0.00524654, -0.00688257
424169658.433505, -0.00895691, 0.01268005, 0.99586487, 0.00368954, 0.00810134, -0.00797350, -171.44641113, 139.62101746, 191.37886047, -0.01227565, 0.01232004, 0.99984872, -0.00014500, 0.00043630, -0.00544873, 0.00000000, 0.00000000, 0.00000000, 0.98947813, 0.14442091, 0.00518400, -0.00698217
424169658.449315, -0.01396179, 0.01522827, 0.99443054, 0.01532596, -0.00253906, -0.01966851, -169.56427002, 138.42327881, 190.87960815, -0.01225621, 0.01233765, 0.99984878, 0.00329930, 0.00034240, -0.00398390, 0.00000000, 0.00000000, 0.00000000, 0.98947970, 0.14441020, 0.00517319, -0.00698942
424169658.465131, -0.01785278, 0.01435852, 0.99543762, 0.01766848, -0.00373322, -0.02199185, -170.24867249, 138.08106995, 189.88111877, -0.01234336, 0.01225905, 0.99984866, -0.00320534, -0.00113540, -0.00669986, 0.00000000, 0.00000000, 0.00000000, 0.98948068, 0.14440333, 0.00522203, -0.00695679
424169658.480974, -0.01785278, 0.01435852, 0.99543762, 0.02466513, -0.00846166, -0.02548965, -170.24867249, 138.08106995, 189.88111877, -0.01237541, 0.01233341, 0.99984735, -0.00248665, 0.00023983, -0.00643915, 0.00000000, 0.00000000, 0.00000000, 0.98947952, 0.14440902, 0.00523248, -0.00699592
424169658.496542, -0.01593018, 0.01625061, 0.99844360, 0.01775876, 0.00211029, -0.02072978, -169.39315796, 137.90997314, 190.38035583, -0.01236698, 0.01263594, 0.99984366, -0.00186947, 0.00433183, -0.00240716, 0.00000000, 0.00000000, 0.00000000, 0.98946966, 0.14447017, 0.00520603, -0.00714533
424169658.512899, -0.01318359, 0.01425171, 0.99641418, 0.00361391, -0.00016938, -0.02440654, -169.39315796, 139.27880859, 190.71319580, -0.01240545, 0.01275526, 0.99984169, -0.00352473, 0.00349535, -0.00139809, 0.00000000, 0.00000000, 0.00000000, 0.98946485, 0.14449970, 0.00521623, -0.00720730
424169658.528303, -0.01187134, 0.01104736, 0.99487305, 0.02351119, -0.00729546, -0.02664573, -168.87985229, 138.42327881, 190.21394348, -0.01245581, 0.01273765, 0.99984127, -0.00072778, 0.00151406, -0.00342711, 0.00000000, 0.00000000, 0.00000000, 0.98945906, 0.14453862, 0.00524213, -0.00720244
424169658.544867, -0.01747131, 0.01066589, 0.99766541, 0.01887542, 0.00221122, -0.00325811, -171.44641113, 136.54113770, 190.38035583, -0.01233759, 0.01280494, 0.99984187, 0.00038996, 0.00118737, -0.00644895, 0.00000000, 0.00000000, 0.00000000, 0.98945479, 0.14456889, 0.00517855, -0.00722734
424169658.559841, -0.01747131, 0.01066589, 0.99766541, 0.01299623, 0.00223572, -0.00448317, -170.59088135, 138.42327881, 190.87960815, -0.01239668, 0.01280468, 0.99984115, -0.00507464, -0.00287121, -0.00467820, 0.00000000, 0.00000000, 0.00000000, 0.98946218, 0.14451706, 0.00520819, -0.00723122
424169658.575668, -0.01632690, 0.01309204, 0.99716187, 0.00714926, 0.00220323, -0.01501916, -170.59088135, 138.42327881, 190.87960815, -0.01257695, 0.01274816, 0.99983966, -0.00251399, 0.00005396, -0.00267777, 0.00000000, 0.00000000, 0.00000000, 0.98947253, 0.14444353, 0.00530200, -0.00721589
424169658.591845, -0.01766968, 0.01705933, 0.99372864, 0.00827418, -0.00251536, -0.02206962, -171.27529907, 139.79211426, 191.21244812, -0.01265596, 0.01272267, 0.99983895, -0.00367094, 0.00036937, -0.00267710, 0.00000000, 0.00000000, 0.00000000, 0.98948311, 0.14436985, 0.00534348, -0.00720859
424169658.607257, -0.01219177, 0.01399231, 0.99539185, 0.01773186, 0.00095714, -0.01842162, -170.41978455, 139.62101746, 192.04452515, -0.01276138, 0.01278389, 0.99983686, -0.00490829, 0.00427544, -0.00610821, 0.00000000, 0.00000000, 0.00000000, 0.98947945, 0.14439125, 0.00539106, -0.00724660
424169658.624609, -0.01333618, 0.01179504, 0.99839783, 0.02000806, -0.00612314, -0.02899064, -172.30192566, 140.81874084, 191.21244812, -0.01271533, 0.01291989, 0.99983567, 0.00052355, 0.00107242, -0.00444384, 0.00000000, 0.00000000, 0.00000000, 0.98947658, 0.14440892, 0.00535833, -0.00731067
424169658.639075, -0.01333618, 0.01179504, 0.99839783, 0.01299170, -0.00135874, -0.01967330, -173.67076111, 141.16094971, 190.54678345, -0.01265417, 0.01309332, 0.99983418, -0.00205530, 0.00289789, -0.00641074, 0.00000000, 0.00000000, 0.00000000, 0.98946872, 0.14446021, 0.00531516, -0.00739234
424169658.654671, -0.01208496, 0.01029968, 0.99761963, 0.00480274, 0.00340432, -0.01153229, -171.44641113, 140.64764404, 191.71170044, -0.01261968, 0.01308379, 0.99983478, -0.00173884, -0.00028167, -0.00668596, 0.00000000, 0.00000000, 0.00000000, 0.98946708, 0.14447242, 0.00529869, -0.00738520
424169658.670535, -0.01527405, 0.01063538, 0.99339294, 0.01074372, 0.00567147, -0.01725169, -172.13082886, 138.93659973, 191.37886047, -0.01262937, 0.01297736, 0.99983603, 0.00054441, -0.00267768, -0.00221640, 0.00000000, 0.00000000, 0.00000000, 0.98947021, 0.14445315, 0.00531132, -0.00733313
424169658.686146, -0.01593018, 0.01602173, 0.99395752, 0.01414272, -0.00372123, -0.02319240, -172.13082886, 138.93659973, 191.37886047, -0.01269127, 0.01289934, 0.99983627, -0.00258277, -0.00226397, -0.00644331, 0.00000000, 0.00000000, 0.00000000, 0.98946408, 0.14449552, 0.00534727, -0.00729923
424169658.703096, -0.01565552, 0.01551819, 0.99893188, 0.01303111, 0.00337423, -0.00911920, -171.10420227, 139.27880859, 192.04452515, -0.01269134, 0.01297504, 0.99983525, -0.00323883, 0.00304669, -0.00587776, 0.00000000, 0.00000000, 0.00000000, 0.98945893, 0.14452909, 0.00534159, -0.00733687
424169658.718137, -0.01194763, 0.01399231, 0.99464417, 0.01170433, -0.01076183, -0.03148256, -170.41978455, 139.96322632, 191.71170044, -0.01265687, 0.01308451, 0.99983430, -0.00226623, 0.00194540, -0.00490020, 0.00000000, 0.00000000, 0.00000000, 0.98945918, 0.14452568, 0.00531664, -0.00738853
424169658.735509, -0.01194763, 0.01399231, 0.99464417, 0.01412567, -0.00248979, -0.01269689, -170.07757568, 138.93659973, 191.71170044, -0.01256626, 0.01315981, 0.99983442, 0.00133579, 0.00153441, -0.00119247, 0.00000000, 0.00000000, 0.00000000, 0.98945122, 0.14458042, 0.00526596, -0.00741953
424169658.751302, -0.01284790, 0.01106262, 0.99438477, 0.00594125, -0.00253826, -0.02791366, -170.07757568, 137.22555542, 191.04602051, -0.01253217, 0.01312456, 0.99983531, 0.00058454, 0.00086775, -0.00519117, 0.00000000, 0.00000000, 0.00000000, 0.98945777, 0.14453715, 0.00525197, -0.00739939
424169658.764969, -0.01582336, 0.01257324, 0.99865723, 0.01290914, -0.00721690, -0.02326378, -168.87985229, 137.05444336, 190.54678345, -0.01243805, 0.01310259, 0.99983680, -0.00040985, -0.00203997, -0.00545203, 0.00000000, 0.00000000, 0.00000000, 0.98944880, 0.14460107, 0.00520651, -0.00738205
424169658.781360, -0.01437378, 0.01332092, 0.99191284, 0.01296480, -0.00251216, -0.01736514, -170.76199341, 139.27880859, 191.37886047, -0.01246227, 0.01318967, 0.99983537, -0.00336109, -0.00061643, -0.00117812, 0.00000000, 0.00000000, 0.00000000, 0.98944527, 0.14462272, 0.00521203, -0.00742700
424169658.797114, -0.01516724, 0.01525879, 0.99594116, 0.01538029, 0.00336863, -0.00793063, -170.07757568, 138.25218201, 191.04602051, -0.01250713, 0.01316716, 0.99983507, -0.00391133, 0.00335811, -0.00364978, 0.00000000, 0.00000000, 0.00000000, 0.98944085, 0.14465248, 0.00523563, -0.00741927
424169658.813272, -0.01516724, 0.01525879, 0.99594116, 0.01409425, -0.00723741, -0.02557940, -170.07757568, 138.25218201, 191.04602051, -0.01262507, 0.01322563, 0.99983281, -0.00327459, 0.00157540, -0.00689765, 0.00000000, 0.00000000, 0.00000000, 0.98944712, 0.14460572, 0.00529011, -0.00745648
424169658.828197, -0.01367188, 0.01473999, 0.99690247, 0.01996492, -0.00724779, -0.02202647, -170.41978455, 139.27880859, 191.71170044, -0.01253949, 0.01330644, 0.99983281, -0.00262774, 0.00195234, -0.00389167, 0.00000000, 0.00000000, 0.00000000, 0.98944130, 0.14464553, 0.00524163, -0.00749049
424169658.844901, -0.01431274, 0.01181030, 0.99789429, 0.01771987, 0.00097845, -0.01492941, -171.10420227, 139.96322632, 193.04302979, -0.01246083, 0.01340912, 0.99983245, -0.00121105, 0.00133087, -0.00292998, 0.00000000, 0.00000000, 0.00000000, 0.98943627, 0.14467926, 0.00519502, -0.00753578
424169658.861028, -0.01342773, 0.01449585, 0.99516296, 0.02234792, -0.00491167, -0.01963495, -171.61750793, 140.13432312, 193.20944214, -0.01249519, 0.01343406, 0.99983168, -0.00181755, -0.00162376, -0.00193740, 0.00000000, 0.00000000, 0.00000000, 0.98943436, 0.14469101, 0.00521013, -0.00755067
424169658.876209, -0.01629639, 0.01162720, 0.99465942, 0.01650681, -0.00255264, -0.02082059, -171.44641113, 138.25218201, 194.04151917, -0.01245261, 0.01347679, 0.99983162, -0.00063944, -0.00265831, -0.00419565, 0.00000000, 0.00000000, 0.00000000, 0.98943309, 0.14469962, 0.00518590, -0.00756877
424169658.891969, -0.01629639, 0.01162720, 0.99465942, 0.00482565, 0.00456492, -0.01267638, -169.90646362, 139.79211426, 192.21093750, -0.01245434, 0.01359503, 0.99983001, -0.00271289, 0.00119074, -0.00489594, 0.00000000, 0.00000000, 0.00000000, 0.98943186, 0.14470523, 0.00517817, -0.00762743
424169658.907874, -0.01634216, 0.01408386, 0.99592590, 0.00822144, -0.00602407, -0.02329281, -170.24867249, 139.44990540, 192.54377747, -0.01259205, 0.01345542, 0.99983019, -0.00370433, -0.00182822, -0.00517076, 0.00000000, 0.00000000, 0.00000000, 0.98944008, 0.14464927, 0.00525683, -0.00756802
424169658.923246, -0.01515198, 0.01478577, 0.99568176, 0.01172856, -0.00720332, -0.02211169, -170.24867249, 139.44990540, 192.54377747, -0.01261638, 0.01337430, 0.99983096, -0.00372578, 0.00070956, -0.00390506, 0.00000000, 0.00000000, 0.00000000, 0.98943891, 0.14465868, 0.00527466, -0.00752970
424169658.939438, -0.01437378, 0.01353455, 0.99566650, 0.01528015, -0.00485947, -0.01738006, -172.13082886, 138.93659973, 192.04452515, -0.01261211, 0.01341621, 0.99983048, -0.00253987, 0.00136956, -0.00414869, 0.00000000, 0.00000000, 0.00000000, 0.98944054, 0.14464661, 0.00526961, -0.00755006
424169658.954983, -0.01269531, 0.01498413, 0.99615479, 0.01756781, -0.00715671, -0.00924756, -169.39315796, 138.59439087, 191.37886047, -0.01258073, 0.01339685, 0.99983114, -0.00154891, -0.00057947, -0.00742999, 0.00000000, 0.00000000, 0.00000000, 0.98943986, 0.14465243, 0.00525544, -0.00753824
424169658.970986, -0.01269531, 0.01498413, 0.99615479, 0.01540532, 0.00212307, -0.02075401, -169.39315796, 138.25218201, 193.37585449, -0.01253438, 0.01345791, 0.99983090, -0.00136638, -0.00041165, -0.00643793, 0.00000000, 0.00000000, 0.00000000, 0.98944022, 0.14464954, 0.00522811, -0.00756508
424169658.986479, -0.01344299, 0.01475525, 0.99465942, 0.01526657, -0.00723687, -0.02440308, -169.39315796, 138.59439087, 192.37736511, -0.01250896, 0.01354459, 0.99983001, -0.00308552, -0.00022367, -0.00314118, 0.00000000, 0.00000000, 0.00000000, 0.98943382, 0.14469183, 0.00520894, -0.00760636
424169659.002539, -0.01266479, 0.01327515, 0.99465942, 0.00714127, 0.00221761, -0.01269129, -170.07757568, 139.27880859, 191.37886047, -0.01247230, 0.01362346, 0.99982941, -0.00097069, 0.00113178, -0.00516998, 0.00000000, 0.00000000, 0.00000000, 0.98942799, 0.14473063, 0.00518480, -0.00764293
424169659.018544, -0.01412964, 0.01330566, 0.99566650, 0.00950349, 0.00098750, -0.02083471, -169.90646362, 138.42327881, 191.87811279, -0.01246803, 0.01356508, 0.99983025, -0.00019676, -0.00028993, -0.00517083, 0.00000000, 0.00000000, 0.00000000, 0.98943357, 0.14469391, 0.00518719, -0.00761354
424169659.033601, -0.01585388, 0.01356506, 0.99592590, 0.01761069, -0.00603206, -0.01621146, -169.90646362, 138.42327881, 191.87811279, -0.01247259, 0.01361650, 0.99982947, -0.00441889, 0.00243575, -0.00338480, 0.00000000, 0.00000000, 0.00000000, 0.98943430, 0.14468766, 0.00518578, -0.00763928
424169659.049938, -0.01585388, 0.01356506, 0.99592590, 0.01056982, -0.00482671, -0.01626472, -171.44641113, 139.27880859, 192.37736511, -0.01245694, 0.01366342, 0.99982905, -0.00087924, -0.00185312, -0.00393367, 0.00000000, 0.00000000, 0.00000000, 0.98943468, 0.14468429, 0.00517467, -0.00766135
424169659.066154, -0.01214600, 0.01251221, 0.99563599, 0.01185160, 0.00218512, -0.01380663, -171.27529907, 139.10769653, 192.87660217, -0.01238810, 0.01373605, 0.99982893, -0.00102437, 0.00028678, -0.00516949, 0.00000000, 0.00000000, 0.00000000, 0.98942611, 0.14474261, 0.00513490, -0.00769260
424169659.081163, -0.01512146, 0.01379395, 0.99668884, 0.01309982, 0.00685498, -0.01255174, -172.13082886, 140.30543518, 191.71170044, -0.01237359, 0.01373151, 0.99982917, 0.00022759, -0.00121930, -0.00419317, 0.00000000, 0.00000000, 0.00000000, 0.98943208, 0.14470223, 0.00512836, -0.00768910
424169659.096629, -0.01364136, 0.01351929, 0.99566650, 0.01522902, -0.00957140, -0.02444249, -171.78862000, 139.96322632, 191.04602051, -0.01250533, 0.01373320, 0.99982750, -0.00261613, 0.00006074, -0.00313865, 0.00000000, 0.00000000, 0.00000000, 0.98943537, 0.14467686, 0.00519362, -0.00769934
424169659.113636, -0.01463318, 0.01402283, 0.99740601, 0.01404604, -0.00715192, -0.01161191, -172.47303772, 140.30543518, 192.37736511, -0.01245586, 0.01377584, 0.99982750, -0.00171956, 0.00123881, -0.00391688, 0.00000000, 0.00000000, 0.00000000, 0.98943363, 0.14468879, 0.00516596, -0.00771691
424169659.128475, -0.01463318, 0.01402283, 0.99740601, 0.00828909, -0.00134064, -0.02088611, -172.47303772, 140.30543518, 192.37736511, -0.01243859, 0.01383552, 0.99982691, -0.00413245, -0.00074348, -0.00266505, 0.00000000, 0.00000000, 0.00000000, 0.98943254, 0.14469521, 0.00515305, -0.00774523
424169659.144485, -0.01536560, 0.01382446, 0.99517822, 0.01062601, -0.00492658, -0.03256007, -171.95971680, 140.81874084, 190.87960815, -0.01235867, 0.01391999, 0.99982673, 0.00015164, 0.00104888, -0.00417549, 0.00000000, 0.00000000, 0.00000000, 0.98942848, 0.14472267, 0.00510718, -0.00778138
424169659.160349, -0.01098633, 0.01443481, 0.99464417, 0.01417095, -0.00377104, -0.03134008, -171.95971680, 140.47653198, 191.54527283, -0.01226735, 0.01392445, 0.99982780, -0.00309825, -0.00009999, -0.00464957, 0.00000000, 0.00000000, 0.00000000, 0.98940822, 0.14486293, 0.00506058, -0.00777769
424169659.176138, -0.01187134, 0.01177979, 0.99563599, 0.00481872, 0.00337582, -0.01618802, -171.61750793, 141.16094971, 192.54377747, -0.01218146, 0.01395711, 0.99982840, 0.00119513, 0.00047770, -0.00518423, 0.00000000, 0.00000000, 0.00000000, 0.98939332, 0.14496568, 0.00501490, -0.00778815
424169659.192508, -0.01588440, 0.01502991, 0.99742126, 0.01761761, -0.00484349, -0.01269982, -170.93309021, 138.08106995, 191.21244812, -0.01220236, 0.01394562, 0.99982828, -0.00314798, -0.00060944, -0.00640483, 0.00000000, 0.00000000, 0.00000000, 0.98939073, 0.14498323, 0.00502594, -0.00778407
424169659.207658, -0.01588440, 0.01502991, 0.99742126, 0.00947846, 0.00223359, -0.00801132, -171.61750793, 138.08106995, 191.54527283, -0.01215168, 0.01391981, 0.99982929, -0.00152020, 0.00057604, -0.00516985, 0.00000000, 0.00000000, 0.00000000, 0.98939457, 0.14495871, 0.00500293, -0.00776750
424169659.224939, -0.01557922, 0.01283264, 0.99615479, 0.01062095, -0.00371617, -0.02555676, -169.90646362, 138.42327881, 190.54678345, -0.01223403, 0.01399415, 0.99982721, -0.00247544, 0.00175292, -0.00515255, 0.00000000, 0.00000000, 0.00000000, 0.98940307, 0.14489713, 0.00503877, -0.00780994
424169659.239444, -0.01243591, 0.01347351, 0.99667358, 0.01645407, -0.00606135, -0.02204352, -169.90646362, 138.42327881, 190.54678345, -0.01216484, 0.01397835, 0.99982828, -0.00341438, -0.00114571, -0.00367351, 0.00000000, 0.00000000, 0.00000000, 0.98939838, 0.14493099, 0.00500542, -0.00779728
424169659.255006, -0.01368713, 0.01499939, 0.99516296, 0.00946754, 0.00105168, -0.01035890, -169.39315796, 137.56776428, 190.38035583, -0.01218287, 0.01400089, 0.99982774, -0.00025304, -0.00052738, -0.00315418, 0.00000000, 0.00000000, 0.00000000, 0.98940054, 0.14491535, 0.00501283, -0.00780966
424169659.270928, -0.01461792, 0.01255798, 0.99464417, 0.01190380, 0.00209218, -0.02893817, -170.24867249, 138.42327881, 190.54678345, -0.01214510, 0.01394439, 0.99982899, -0.00122159, -0.00140166, -0.00343008, 0.00000000, 0.00000000, 0.00000000, 0.98939957, 0.14492413, 0.00499817, -0.00777901
424169659.286539, -0.01461792, 0.01255798, 0.99464417, 0.01663650, 0.00802410, -0.00900388, -170.24867249, 137.05444336, 191.21244812, -0.01218869, 0.01396570, 0.99982816, -0.00294803, -0.00015649, -0.00588592, 0.00000000, 0.00000000, 0.00000000, 0.98939546, 0.14495073, 0.00501798, -0.00779285
424169659.302502, -0.01440430, 0.01477051, 0.99591064, 0.01881550, -0.00608825, -0.02434689, -171.10420227, 137.56776428, 192.04452515, -0.01226232, 0.01403124, 0.99982637, -0.00284388, -0.00071032, -0.00390046, 0.00000000, 0.00000000, 0.00000000, 0.98939825, 0.14492856, 0.00504983, -0.00783050
424169659.318222, -0.01515198, 0.01502991, 0.99568176, 0.01881550, -0.00608825, -0.02434689, -172.64413452, 139.44990540, 190.54678345, -0.01226312, 0.01412365, 0.99982506, -0.00214118, 0.00064686, -0.00391441, 0.00000000, 0.00000000, 0.00000000, 0.98940028, 0.14491240, 0.00504366, -0.00787620
424169659.334311, -0.01373291, 0.01646423, 0.99368286, 0.01527190, -0.00844648, -0.03140666, -172.64413452, 139.44990540, 190.54678345, -0.01224291, 0.01420564, 0.99982417, -0.00290907, 0.00082427, -0.00414238, 0.00000000, 0.00000000, 0.00000000, 0.98939291, 0.14496118, 0.00502733, -0.00791555
424169659.349899, -0.01385498, 0.01132202, 0.99464417, 0.01411316, -0.00606988, -0.02555969, -170.41978455, 140.30543518, 191.37886047, -0.01221224, 0.01420910, 0.99982446, -0.00152067, 0.00225513, -0.00614160, 0.00000000, 0.00000000, 0.00000000, 0.98938093, 0.14504346, 0.00501125, -0.00791546
424169659.366702, -0.01339722, 0.01304626, 0.99365234, 0.01301061, -0.00019148, -0.01965360, -171.95971680, 138.42327881, 191.54527283, -0.01215319, 0.01426459, 0.99982440, -0.00472303, 0.00129937, -0.00388323, 0.00000000, 0.00000000, 0.00000000, 0.98936705, 0.14513798, 0.00497725, -0.00793910
424169659.382050, -0.01339722, 0.01304626, 0.99365234, 0.01177037, -0.00487598, -0.02323635, -173.84187317, 139.27880859, 192.04452515, -0.01218203, 0.01426328, 0.99982405, -0.00344297, -0.00019467, -0.00640060, 0.00000000, 0.00000000, 0.00000000, 0.98936745, 0.14513472, 0.00499164, -0.00794053
424169659.396818, -0.01560974, 0.01333618, 0.99368286, 0.01303804, 0.00456306, -0.00560755, -170.93309021, 139.44990540, 191.54527283, -0.01207217, 0.01422819, 0.99982589, -0.00132504, -0.00118192, -0.00617355, 0.00000000, 0.00000000, 0.00000000, 0.98936027, 0.14518681, 0.00493942, -0.00791545
424169659.413585, -0.01391602, 0.01402283, 0.99540710, 0.01171525, -0.00958072, -0.02913498, -170.76199341, 140.30543518, 192.04452515, -0.01207421, 0.01421623, 0.99982601, -0.00353553, -0.00088005, -0.00614318, 0.00000000, 0.00000000, 0.00000000, 0.98935897, 0.14519589, 0.00494122, -0.00790973
424169659.428489, -0.01434326, 0.01255798, 0.99639893, 0.01536537, 0.00219444, -0.00911440, -170.93309021, 140.81874084, 190.54678345, -0.01200876, 0.01419194, 0.99982715, -0.00190726, -0.00016911, -0.00442007, 0.00000000, 0.00000000, 0.00000000, 0.98935115, 0.14525111, 0.00491017, -0.00789323
424169659.445114, -0.01435852, 0.01280212, 0.99264526, 0.01534780, -0.00017577, -0.01497309, -170.93309021, 140.81874084, 190.54678345, -0.01203057, 0.01419230, 0.99982691, -0.00328925, -0.00183268, -0.00541162, 0.00000000, 0.00000000, 0.00000000, 0.98934717, 0.14527775, 0.00492072, -0.00789513
424169659.460619, -0.01435852, 0.01280212, 0.99264526, 0.01314829, 0.01037062, -0.01016475, -170.24867249, 138.76548767, 190.54678345, -0.01203775, 0.01412083, 0.99982786, -0.00303794, -0.00228001, -0.00541255, 0.00000000, 0.00000000, 0.00000000, 0.98934558, 0.14529016, 0.00492936, -0.00786035
424169659.476122, -0.01438904, 0.01379395, 0.99516296, 0.02233300, -0.00608586, -0.02081873, -171.10420227, 139.27880859, 189.71469116, -0.01216481, 0.01403490, 0.99982750, -0.00219371, -0.00123278, -0.00718224, 0.00000000, 0.00000000, 0.00000000, 0.98935559, 0.14522145, 0.00499901, -0.00782672
424169659.492745, -0.01441956, 0.01501465, 0.99366760, 0.01760776, -0.00722809, -0.02088717, -169.22206116, 139.10769653, 190.87960815, -0.01215486, 0.01418381, 0.99982554, -0.00223418, -0.00038987, -0.00466256, 0.00000000, 0.00000000, 0.00000000, 0.98935653, 0.14521166, 0.00498335, -0.00789963
424169659.507823, -0.01220703, 0.01446533, 0.99539185, 0.01652971, -0.00139230, -0.02196469, -170.93309021, 138.08106995, 189.88111877, -0.01212607, 0.01426090, 0.99982476, -0.00229348, 0.00075375, -0.00615717, 0.00000000, 0.00000000, 0.00000000, 0.98935548, 0.14521747, 0.00496347, -0.00793570
424169659.524384, -0.01411438, 0.01232910, 0.99490356, 0.00834688, 0.00095794, -0.02666650, -169.39315796, 137.22555542, 190.71319580, -0.01212936, 0.01426789, 0.99982464, -0.00441117, -0.00288483, -0.00589764, 0.00000000, 0.00000000, 0.00000000, 0.98934701, 0.14527495, 0.00496413, -0.00793969
424169659.539948, -0.01411438, 0.01232910, 0.99490356, 0.01996785, -0.00605177, -0.01735103, -168.70874023, 138.25218201, 189.71469116, -0.01217845, 0.01420398, 0.99982494, -0.00219533, -0.00114246, -0.00692029, 0.00000000, 0.00000000, 0.00000000, 0.98934769, 0.14527085, 0.00499308, -0.00791162
424169659.555260, -0.01417542, 0.01477051, 0.99566650, 0.01760536, -0.00842358, -0.02556262, -168.70874023, 138.25218201, 189.71469116, -0.01220692, 0.01413750, 0.99982554, -0.00190746, -0.00180840, -0.00492198, 0.00000000, 0.00000000, 0.00000000, 0.98935332, 0.14523354, 0.00501230, -0.00788061
424169659.571463, -0.01420593, 0.01597595, 0.99668884, 0.01765596, -0.00731384, -0.03485465, -170.59088135, 138.08106995, 191.21244812, -0.01216746, 0.01419534, 0.99982518, -0.00200795, 0.00057517, -0.00415870, 0.00000000, 0.00000000, 0.00000000, 0.98935282, 0.14523636, 0.00498855, -0.00790637
424169659.587147, -0.01786804, 0.01530457, 0.99819946, 0.01772680, 0.00216728, -0.01141804, -170.41978455, 139.27880859, 190.71319580, -0.01213827, 0.01427851, 0.99982440, -0.00206766, 0.00169744, -0.00313554, 0.00000000, 0.00000000, 0.00000000, 0.98934199, 0.14530866, 0.00496749, -0.00794576
424169659.603265, -0.01728821, 0.01286316, 0.99642944, 0.01756754, -0.01075811, -0.02560203, -170.76199341, 138.59439087, 190.38035583, -0.01215584, 0.01435030, 0.99982315, -0.00609367, -0.00292146, -0.00440077, 0.00000000, 0.00000000, 0.00000000, 0.98934395, 0.14529324, 0.00497110, -0.00798248
424169659.618508, -0.01728821, 0.01286316, 0.99642944, 0.01411076, -0.00366398, -0.01388066, -171.61750793, 139.44990540, 191.54527283, -0.01217312, 0.01438047, 0.99982250, -0.00409275, -0.00324155, -0.00417125, 0.00000000, 0.00000000, 0.00000000, 0.98934010, 0.14531829, 0.00497724, -0.00799879
424169659.634240, -0.01214600, 0.01251221, 0.99612427, 0.01069286, 0.00456173, -0.00795966, -172.98634338, 140.81874084, 190.87960815, -0.01215076, 0.01441125, 0.99982232, -0.00513745, -0.00154809, -0.00339288, 0.00000000, 0.00000000, 0.00000000, 0.98933782, 0.14533354, 0.00496382, -0.00801247
424169659.650029, -0.01602173, 0.01089478, 0.99464417, 0.01175573, -0.00605017, -0.02441986, -172.98634338, 140.81874084, 190.87960815, -0.01213083, 0.01440105, 0.99982274, -0.00001516, -0.00188885, -0.00369844, 0.00000000, 0.00000000, 0.00000000, 0.98933386, 0.14536116, 0.00495448, -0.00800611
424169659.666437, -0.01223755, 0.01545715, 0.99516296, 0.01415151, -0.00013369, -0.00916580, -172.98634338, 139.79211426, 192.54377747, -0.01214914, 0.01432365, 0.99982363, -0.00387259, -0.00342888, -0.00517944, 0.00000000, 0.00000000, 0.00000000, 0.98933673, 0.14534314, 0.00496931, -0.00796906
424169659.681912, -0.01518250, 0.01551819, 0.99494934, 0.01416855, -0.00136514, -0.01966105, -171.61750793, 140.13432312, 190.54678345, -0.01212996, 0.01433387, 0.99982369, -0.00125200, -0.00179115, -0.00467598, 0.00000000, 0.00000000, 0.00000000, 0.98934178, 0.14530890, 0.00495935, -0.00797255
424169659.697330, -0.01518250, 0.01551819, 0.99494934, 0.01406335, -0.00838310, -0.02210717, -172.64413452, 139.79211426, 191.21244812, -0.01212954, 0.01432005, 0.99982387, -0.00143553, -0.00397459, -0.00469144, 0.00000000, 0.00000000, 0.00000000, 0.98933975, 0.14532312, 0.00496004, -0.00796575
424169659.713436, -0.01473999, 0.01698303, 0.99295044, 0.01757979, -0.00717802, -0.01273923, -171.10420227, 140.30543518, 190.71319580, -0.01214038, 0.01441143, 0.99982244, -0.00400342, 0.00087788, -0.00586493, 0.00000000, 0.00000000, 0.00000000, 0.98933226, 0.14537162, 0.00495837, -0.00801199
424169659.728692, -0.01171875, 0.01445007, 0.99539185, 0.01534087, -0.00136434, -0.01848500, -170.76199341, 139.27880859, 191.04602051, -0.01202231, 0.01450256, 0.99982256, -0.00271768, 0.00248047, -0.00687211, 0.00000000, 0.00000000, 0.00000000, 0.98932732, 0.14540540, 0.00489306, -0.00804866
424169659.746882, -0.01640320, 0.01554871, 0.99418640, 0.01524633, -0.00720092, -0.01858354, -171.44641113, 138.25218201, 191.37886047, -0.01193607, 0.01461363, 0.99982196, 0.00021732, -0.00016355, -0.00443012, 0.00000000, 0.00000000, 0.00000000, 0.98932140, 0.14544464, 0.00484200, -0.00809753
424169659.760682, -0.01457214, 0.01156616, 0.99914551, 0.01411981, -0.00488157, -0.02204804, -171.44641113, 138.25218201, 191.37886047, -0.01189501, 0.01463123, 0.99982220, -0.00376051, 0.00016980, -0.00439984, 0.00000000, 0.00000000, 0.00000000, 0.98932593, 0.14541423, 0.00482066, -0.00810310
424169659.776466, -0.01457214, 0.01156616, 0.99914551, 0.01050883, -0.01192297, -0.03151452, -168.70874023, 138.59439087, 192.04452515, -0.01195448, 0.01462275, 0.99982160, -0.00335008, -0.00276668, -0.00465865, 0.00000000, 0.00000000, 0.00000000, 0.98932493, 0.14542005, 0.00485064, -0.00810326
424169659.792683, -0.01380920, 0.00984192, 0.99412537, 0.01186465, 0.00096034, -0.02313808, -169.05094910, 137.90997314, 191.71170044, -0.01195166, 0.01455313, 0.99982268, -0.00490931, -0.00020987, -0.00664335, 0.00000000, 0.00000000, 0.00000000, 0.98932199, 0.14544188, 0.00485413, -0.00806872
424169659.808176, -0.01484680, 0.01234436, 0.99392700, 0.01180020, -0.00252707, -0.02086906, -169.90646362, 139.10769653, 191.54527283, -0.01197368, 0.01444296, 0.99982399, -0.00183552, -0.00460104, -0.00569863, 0.00000000, 0.00000000, 0.00000000, 0.98931846, 0.14546817, 0.00487283, -0.00801595
424169659.824365, -0.01535034, 0.01354980, 0.99842834, 0.01059379, -0.00486959, -0.02324860, -168.53764343, 136.71224976, 189.88111877, -0.01201754, 0.01436669, 0.99982458, -0.00282926, -0.00202233, -0.00589757, 0.00000000, 0.00000000, 0.00000000, 0.98930961, 0.14552928, 0.00489958, -0.00798170
424169659.839463, -0.01483154, 0.01159668, 0.99465942, 0.00827551, -0.00371804, -0.02790913, -170.24867249, 138.42327881, 191.21244812, -0.01196935, 0.01429058, 0.99982625, -0.00432704, -0.00193096, -0.00242024, 0.00000000, 0.00000000, 0.00000000, 0.98929883, 0.14560545, 0.00488066, -0.00794092
424169659.855276, -0.01483154, 0.01159668, 0.99465942, 0.00947553, 0.00103757, -0.01268677, -170.24867249, 138.42327881, 191.21244812, -0.01197324, 0.01427725, 0.99982637, -0.00442996, 0.00101206, -0.00438876, 0.00000000, 0.00000000, 0.00000000, 0.98928943, 0.14566953, 0.00488304, -0.00793492
424169659.871768, -0.01542664, 0.01625061, 0.99769592, 0.01648124, -0.00490874, -0.02435168, -171.78862000, 138.93659973, 190.38035583, -0.01193090, 0.01416235, 0.99982852, 0.00005956, -0.00335913, -0.00446720, 0.00000000, 0.00000000, 0.00000000, 0.98928550, 0.14569991, 0.00487022, -0.00787515
424169659.887527, -0.01493835, 0.01551819, 0.99494934, 0.01296320, -0.00491087, -0.02788010, -171.61750793, 138.42327881, 190.87960815, -0.01188646, 0.01421622, 0.99982828, -0.00354018, 0.00203439, -0.00213237, 0.00000000, 0.00000000, 0.00000000, 0.98928147, 0.14572688, 0.00484410, -0.00789869
424169659.904049, -0.01408386, 0.01156616, 0.99739075, 0.01758911, -0.00839508, -0.02090688, -171.27529907, 138.42327881, 192.21093750, -0.01186171, 0.01432346, 0.99982703, -0.00307665, 0.00119473, -0.00487771, 0.00000000, 0.00000000, 0.00000000, 0.98927041, 0.14579980, 0.00482346, -0.00795029
424169659.918511, -0.01341248, 0.01377869, 0.99540710, 0.01647591, -0.00369833, -0.01734836, -170.59088135, 138.76548767, 191.54527283, -0.01182860, 0.01431343, 0.99982756, -0.00349123, -0.00149605, -0.00315401, 0.00000000, 0.00000000, 0.00000000, 0.98926970, 0.14580556, 0.00480776, -0.00794294
424169659.935353, -0.01341248, 0.01377869, 0.99540710, 0.01055757, -0.00840680, -0.02912753, -171.27529907, 141.16094971, 190.87960815, -0.01178260, 0.01434572, 0.99982768, -0.00089745, -0.00009401, -0.00416117, 0.00000000, 0.00000000, 0.00000000, 0.98926889, 0.14581119, 0.00478261, -0.00795559
424169659.950618, -0.01710510, 0.01483154, 0.99592590, 0.01533395, -0.00255344, -0.02199638, -171.61750793, 140.81874084, 191.87811279, -0.01171309, 0.01437941, 0.99982798, -0.00369829, 0.00139818, -0.00364270, 0.00000000, 0.00000000, 0.00000000, 0.98925640, 0.14589648, 0.00474508, -0.00796760
424169659.966576, -0.01483154, 0.01206970, 0.99690247, 0.00827151, -0.00371085, -0.02674506, -171.61750793, 140.81874084, 191.87811279, -0.01179656, 0.01433570, 0.99982762, -0.00530855, 0.00049584, -0.00390175, 0.00000000, 0.00000000, 0.00000000, 0.98925650, 0.14589520, 0.00478957, -0.00795206
424169659.981841, -0.01513672, 0.01452637, 0.99617004, 0.02112473, -0.00602247, -0.01151924, -171.27529907, 139.79211426, 190.21394348, -0.01180196, 0.01430223, 0.99982804, -0.00302959, -0.00223253, -0.00292560, 0.00000000, 0.00000000, 0.00000000, 0.98925038, 0.14593736, 0.00479434, -0.00793610
424169659.997516, -0.01557922, 0.01281738, 0.99990845, 0.01885198, -0.00255078, -0.01846822, -170.59088135, 139.10769653, 191.54527283, -0.01182057, 0.01434731, 0.99982721, -0.00331615, 0.00017906, -0.00365716, 0.00000000, 0.00000000, 0.00000000, 0.98925471, 0.14590656, 0.00480051, -0.00795961
424169660.013871, -0.01557922, 0.01281738, 0.99990845, 0.01995294, -0.00722622, -0.01853480, -170.41978455, 140.30543518, 191.04602051, -0.01179594, 0.01439592, 0.99982679, -0.00479036, -0.00057146, -0.00264967, 0.00000000, 0.00000000, 0.00000000, 0.98924750, 0.14595474, 0.00478439, -0.00798209
424169660.028800, -0.01579285, 0.01161194, 0.99566650, 0.01185027, -0.00021385, -0.02432132, -170.24867249, 139.10769653, 191.54527283, -0.01190218, 0.01450095, 0.99982399, -0.00498930, 0.00080361, -0.00487467, 0.00000000, 0.00000000, 0.00000000, 0.98925546, 0.14589601, 0.00482976, -0.00804152
424169660.044852, -0.01219177, 0.01399231, 0.99391174, 0.01766741, -0.00253054, -0.01615234, -170.07757568, 138.93659973, 192.37736511, -0.01191324, 0.01445070, 0.99982458, -0.00387960, -0.00283877, -0.00415811, 0.00000000, 0.00000000, 0.00000000, 0.98924900, 0.14594080, 0.00483853, -0.00801769
424169660.061095, -0.01644897, 0.01725769, 0.99270630, 0.01064386, -0.00255637, -0.02670085, -170.07757568, 138.93659973, 192.37736511, -0.01182811, 0.01450982, 0.99982476, -0.00036367, -0.00051751, -0.00591302, 0.00000000, 0.00000000, 0.00000000, 0.98924643, 0.14595847, 0.00479196, -0.00804080
424169660.076679, -0.01438904, 0.01353455, 0.99340820, 0.01533129, -0.00374893, -0.02667182, -169.39315796, 138.59439087, 190.04753113, -0.01195080, 0.01455695, 0.99982262, -0.00449817, 0.00270074, -0.00711632, 0.00000000, 0.00000000, 0.00000000, 0.98924427, 0.14596946, 0.00484913, -0.00807313
424169660.093050, -0.01429749, 0.01060486, 0.99537659, 0.01178262, -0.00489729, -0.02672802, -170.24867249, 137.05444336, 189.21545410, -0.01186985, 0.01456505, 0.99982345, -0.00395352, -0.00220543, -0.00441636, 0.00000000, 0.00000000, 0.00000000, 0.98922879, 0.14607581, 0.00480762, -0.00807175
424169660.109360, -0.01429749, 0.01060486, 0.99537659, 0.01301727, 0.00099682, -0.01614222, -169.90646362, 137.05444336, 189.88111877, -0.01186014, 0.01457507, 0.99982345, -0.00350546, -0.00050646, -0.00514875, 0.00000000, 0.00000000, 0.00000000, 0.98922075, 0.14613015, 0.00480164, -0.00807625
424169660.124591, -0.01371765, 0.01620483, 0.99668884, 0.01879526, -0.00605230, -0.01852735, -168.87985229, 139.10769653, 190.87960815, -0.01182716, 0.01450844, 0.99982482, -0.00247032, -0.00390358, -0.00444821, 0.00000000, 0.00000000, 0.00000000, 0.98922164, 0.14612646, 0.00479023, -0.00804087
424169660.139851, -0.01528931, 0.01185608, 0.99566650, 0.01409824, -0.00724460, -0.02674320, -169.56427002, 140.13432312, 190.54678345, -0.01178649, 0.01455080, 0.99982464, -0.00193116, 0.00165404, -0.00313582, 0.00000000, 0.00000000, 0.00000000, 0.98921724, 0.14615602, 0.00476677, -0.00805899
424169660.155975, -0.01557922, 0.01235962, 0.99392700, 0.01181511, -0.00135235, -0.01968529, -170.41978455, 138.93659973, 190.38035583, -0.01174425, 0.01463808, 0.99982387, -0.00354506, -0.00278200, -0.00415738, 0.00000000, 0.00000000, 0.00000000, 0.98920899, 0.14621050, 0.00473905, -0.00809934
424169660.172073, -0.01661682, 0.01434326, 0.99192810, 0.01413606, -0.00491007, -0.02670378, -170.41978455, 138.93659973, 190.38035583, -0.01169004, 0.01459845, 0.99982512, -0.00222597, -0.00107917, -0.00690518, 0.00000000, 0.00000000, 0.00000000, 0.98919997, 0.14627364, 0.00471462, -0.00807607
424169660.187276, -0.01661682, 0.01434326, 0.99192810, 0.01179754, -0.00372257, -0.02554451, -172.30192566, 140.13432312, 191.87811279, -0.01173061, 0.01456449, 0.99982512, -0.00410802, -0.00122830, -0.00339568, 0.00000000, 0.00000000, 0.00000000, 0.98919238, 0.14632495, 0.00473675, -0.00806248
424169660.203085, -0.01531982, 0.01257324, 0.99716187, 0.02002697, -0.00495614, -0.02897093, -171.27529907, 140.81874084, 190.87960815, -0.01167170, 0.01463162, 0.99982482, -0.00494512, -0.00028835, -0.00789673, 0.00000000, 0.00000000, 0.00000000, 0.98918470, 0.14637640, 0.00470229, -0.00809162
424169660.218913, -0.01416016, 0.01428223, 0.99615479, 0.01063453, -0.00133877, -0.01853374, -172.47303772, 139.27880859, 192.71018982, -0.01174596, 0.01460157, 0.99982440, -0.00357386, -0.00202833, -0.00266253, 0.00000000, 0.00000000, 0.00000000, 0.98917934, 0.14641188, 0.00474093, -0.00808237
424169660.234700, -0.01437378, 0.01403809, 0.99591064, 0.01185559, 0.00217793, -0.01497043, -170.59088135, 141.16094971, 192.54377747, -0.01179137, 0.01461024, 0.99982375, -0.00236879, -0.00032802, -0.00366895, 0.00000000, 0.00000000, 0.00000000, 0.98918429, 0.14637730, 0.00476303, -0.00808982
424169660.250821, -0.01188660, 0.01177979, 0.99513245, 0.01759311, -0.00840227, -0.02207068, -171.27529907, 139.79211426, 192.21093750, -0.01179959, 0.01454256, 0.99982464, -0.00306247, -0.00172518, -0.00490580, 0.00000000, 0.00000000, 0.00000000, 0.98918287, 0.14638841, 0.00477196, -0.00805699
424169660.266646, -0.01188660, 0.01177979, 0.99513245, 0.00948884, -0.00018669, -0.02201795, -171.27529907, 139.79211426, 192.21093750, -0.01177470, 0.01454819, 0.99982482, -0.00337728, 0.00023758, -0.00365479, 0.00000000, 0.00000000, 0.00000000, 0.98917487, 0.14644283, 0.00475880, -0.00805822
424169660.282221, -0.01515198, 0.01429749, 0.99342346, 0.00825127, -0.00367516, -0.02092552, -170.59088135, 140.47653198, 190.87960815, -0.01163008, 0.01451071, 0.99982709, -0.00025652, -0.00273093, -0.00469463, 0.00000000, 0.00000000, 0.00000000, 0.98916063, 0.14654276, 0.00468919, -0.00802956
424169660.297389, -0.01336670, 0.01231384, 0.99440002, 0.01188542, 0.00452684, -0.01260314, -169.73536682, 137.90997314, 190.04753113, -0.01165136, 0.01457459, 0.99982589, -0.00350062, -0.00027711, -0.00640244, 0.00000000, 0.00000000, 0.00000000, 0.98915953, 0.14654822, 0.00469500, -0.00806274
424169660.314432, -0.01263428, 0.01203918, 0.99464417, 0.01191072, 0.00328075, -0.02542653, -171.10420227, 137.90997314, 189.71469116, -0.01171646, 0.01449483, 0.99982631, -0.00165023, -0.00218098, -0.00542627, 0.00000000, 0.00000000, 0.00000000, 0.98916437, 0.14651619, 0.00473330, -0.00802791
424169660.328777, -0.01391602, 0.01377869, 0.99291992, 0.02115402, -0.00727549, -0.02550643, -171.10420227, 137.90997314, 190.04753113, -0.01167293, 0.01448065, 0.99982703, -0.00076299, -0.00146490, -0.00492345, 0.00000000, 0.00000000, 0.00000000, 0.98915441, 0.14658462, 0.00471225, -0.00801803
424169660.345257, -0.01391602, 0.01377869, 0.99291992, 0.01300368, -0.00138032, -0.02316524, -169.73536682, 138.59439087, 191.04602051, -0.01167651, 0.01451006, 0.99982655, -0.00538281, -0.00140276, -0.00167286, 0.00000000, 0.00000000, 0.00000000, 0.98915573, 0.14657494, 0.00471195, -0.00803279
424169660.361632, -0.01588440, 0.01454163, 0.99467468, 0.01416163, -0.00255424, -0.02317270, -169.39315796, 136.54113770, 191.37886047, -0.01166468, 0.01445531, 0.99982750, -0.00486059, -0.00284337, -0.00266561, 0.00000000, 0.00000000, 0.00000000, 0.98914562, 0.14664474, 0.00470954, -0.00800518
424169660.377019, -0.01390076, 0.01329041, 0.99316406, 0.01651080, -0.00255983, -0.02198439, -169.39315796, 136.54113770, 191.37886047, -0.01166983, 0.01447400, 0.99982715, -0.00421457, 0.00006763, -0.00515246, 0.00000000, 0.00000000, 0.00000000, 0.98914706, 0.14663448, 0.00471080, -0.00801475
424169660.393212, -0.01414490, 0.01403809, 0.99591064, 0.01416163, -0.00255424, -0.02317270, -169.90646362, 138.08106995, 190.54678345, -0.01172536, 0.01444318, 0.99982697, -0.00217540, -0.00115278, -0.00666288, 0.00000000, 0.00000000, 0.00000000, 0.98914672, 0.14663638, 0.00474051, -0.00800359
424169660.408802, -0.01344299, 0.01499939, 0.99441528, 0.00951148, 0.00097312, -0.02316258, -172.47303772, 137.90997314, 191.37886047, -0.01172590, 0.01444207, 0.99982697, -0.00051165, 0.00150336, -0.00341277, 0.00000000, 0.00000000, 0.00000000, 0.98914522, 0.14664651, 0.00474078, -0.00800313
424169660.424688, -0.01344299, 0.01499939, 0.99441528, 0.00948085, -0.00017231, -0.01969008, -171.27529907, 138.08106995, 192.54377747, -0.01172278, 0.01444983, 0.99982685, -0.00310876, -0.00238013, -0.00191733, 0.00000000, 0.00000000, 0.00000000, 0.98914306, 0.14666097, 0.00473855, -0.00800681
424169660.440214, -0.01605225, 0.01211548, 0.99392700, 0.02596422, 0.00091959, -0.01717233, -170.59088135, 139.44990540, 190.54678345, -0.01172937, 0.01440584, 0.99982744, -0.00284277, -0.00355684, -0.00445085, 0.00000000, 0.00000000, 0.00000000, 0.98913886, 0.14669027, 0.00474480, -0.00798567
424169660.456236, -0.01481628, 0.01184082, 0.99615479, 0.00947153, 0.00104449, -0.01152297, -169.56427002, 138.76548767, 191.87811279, -0.01173554, 0.01449207, 0.99982613, -0.00431670, -0.00237659, -0.00589911, 0.00000000, 0.00000000, 0.00000000, 0.98913964, 0.14668273, 0.00474159, -0.00802874
424169660.472205, -0.01712036, 0.01484680, 0.99192810, 0.00830800, -0.00017337, -0.02086640, -169.56427002, 138.76548767, 191.87811279, -0.01183219, 0.01451642, 0.99982464, -0.00298409, -0.00267560, -0.00366984, 0.00000000, 0.00000000, 0.00000000, 0.98913862, 0.14668709, 0.00478757, -0.00804790
424169660.487208, -0.01606750, 0.01333618, 0.99768066, 0.01761069, -0.00603206, -0.01621146, -172.64413452, 139.44990540, 192.21093750, -0.01179893, 0.01440546, 0.99982661, -0.00181191, -0.00163386, -0.00243587, 0.00000000, 0.00000000, 0.00000000, 0.98912894, 0.14675575, 0.00477870, -0.00799090
424169660.503910, -0.01606750, 0.01333618, 0.99768066, 0.00823876, -0.00725578, -0.03378832, -171.10420227, 138.59439087, 191.37886047, -0.01180530, 0.01441064, 0.99982649, -0.00113415, -0.00015893, -0.00516705, 0.00000000, 0.00000000, 0.00000000, 0.98912766, 0.14676412, 0.00478141, -0.00799397
424169660.519257, -0.01496887, 0.01649475, 0.99418640, 0.01304603, 0.00454895, -0.00793542, -171.78862000, 140.30543518, 191.71170044, -0.01185632, 0.01436862, 0.99982649, -0.00498938, 0.00020353, -0.00365643, 0.00000000, 0.00000000, 0.00000000, 0.98911513, 0.14684858, 0.00480905, -0.00797734
424169660.535306, -0.01420593, 0.01573181, 0.99668884, 0.01532995, -0.00254625, -0.02083258, -172.30192566, 139.44990540, 193.20944214, -0.01185600, 0.01444534, 0.99982536, -0.00311287, 0.00204941, -0.00563897, 0.00000000, 0.00000000, 0.00000000, 0.98911645, 0.14683777, 0.00480334, -0.00801521
424169660.550899, -0.01495361, 0.01647949, 0.99919128, 0.01292405, -0.00604218, -0.02208000, -170.76199341, 139.96322632, 190.71319580, -0.01195868, 0.01435697, 0.99982542, -0.00224725, 0.00137484, -0.00313658, 0.00000000, 0.00000000, 0.00000000, 0.98911989, 0.14681471, 0.00486080, -0.00797894
424169660.566506, -0.01708984, 0.01457214, 0.99642944, 0.00956607, 0.00688108, -0.01142443, -170.76199341, 139.96322632, 190.71319580, -0.01187846, 0.01431211, 0.99982703, -0.00125935, -0.00178464, -0.00417577, 0.00000000, 0.00000000, 0.00000000, 0.98911186, 0.14687148, 0.00482396, -0.00795113
424169660.582320, -0.01708984, 0.01457214, 0.99642944, 0.01302925, 0.00097552, -0.01963416, -171.10420227, 140.30543518, 191.37886047, -0.01194977, 0.01432708, 0.99982595, -0.00173736, 0.00067231, -0.00441885, 0.00000000, 0.00000000, 0.00000000, 0.98911054, 0.14687858, 0.00485807, -0.00796381
424169660.597727, -0.01657104, 0.01310730, 0.99566650, 0.01533288, -0.00135022, -0.01615687, -170.76199341, 139.62101746, 190.04753113, -0.01200541, 0.01434437, 0.99982506, -0.00334493, -0.00027577, -0.00414328, 0.00000000, 0.00000000, 0.00000000, 0.98910955, 0.14688371, 0.00488428, -0.00797648
424169660.614243, -0.01663208, 0.01481628, 0.99467468, 0.01651906, -0.00257421, -0.02431226, -170.59088135, 138.08106995, 190.87960815, -0.01200823, 0.01436556, 0.99982470, -0.00456282, -0.00125826, -0.00415820, 0.00000000, 0.00000000, 0.00000000, 0.98910381, 0.14692173, 0.00488381, -0.00798735
424169660.629570, -0.01683044, 0.01338196, 0.99192810, 0.01413473, -0.00370685, -0.02086454, -169.73536682, 138.59439087, 191.71170044, -0.01211595, 0.01445088, 0.99982220, -0.00451613, 0.00036540, -0.00514749, 0.00000000, 0.00000000, 0.00000000, 0.98910118, 0.14693518, 0.00493072, -0.00803754
424169660.645281, -0.01512146, 0.01353455, 0.99691772, 0.01773186, 0.00095714, -0.01842162, -168.70874023, 137.56776428, 190.04753113, -0.01206754, 0.01453323, 0.99982154, -0.00329806, -0.00096816, -0.00639810, 0.00000000, 0.00000000, 0.00000000, 0.98909670, 0.14696426, 0.00490049, -0.00807485
424169660.661548, -0.01512146, 0.01353455, 0.99691772, 0.02348482, -0.00484669, -0.00798309, -168.70874023, 137.56776428, 190.04753113, -0.01213858, 0.01457207, 0.99982011, -0.00127390, -0.00079338, -0.00540486, 0.00000000, 0.00000000, 0.00000000, 0.98909617, 0.14696542, 0.00493276, -0.00809929
424169660.677146, -0.01684570, 0.01457214, 0.99617004, 0.01762560, -0.00485787, -0.01502769, -168.87985229, 138.42327881, 190.87960815, -0.01215493, 0.01467974, 0.99981838, -0.00395835, -0.00035173, -0.00464014, 0.00000000, 0.00000000, 0.00000000, 0.98909410, 0.14697636, 0.00493285, -0.00815381
424169660.693139, -0.01469421, 0.01573181, 0.99717712, 0.02000860, -0.00252148, -0.01263590, -169.05094910, 138.59439087, 192.04452515, -0.01208527, 0.01477451, 0.99981779, -0.00476043, -0.00020236, -0.00364777, 0.00000000, 0.00000000, 0.00000000, 0.98909676, 0.14695750, 0.00489159, -0.00819547
424169660.708940, -0.01602173, 0.01136780, 0.99740601, 0.00600463, 0.00215237, -0.02434316, -170.07757568, 137.90997314, 191.37886047, -0.01208115, 0.01480440, 0.99981743, -0.00261306, 0.00092741, -0.00264030, 0.00000000, 0.00000000, 0.00000000, 0.98909587, 0.14696283, 0.00488731, -0.00820998
424169660.725122, -0.01731873, 0.01358032, 0.99693298, 0.01299170, -0.00135874, -0.01967330, -170.76199341, 139.27880859, 190.71319580, -0.01215110, 0.01470413, 0.99981803, -0.00387063, -0.00333633, -0.00241205, 0.00000000, 0.00000000, 0.00000000, 0.98909392, 0.14697701, 0.00492915, -0.00816559
424169660.740250, -0.01731873, 0.01358032, 0.99693298, 0.01653663, -0.00020347, -0.01845331, -169.22206116, 140.13432312, 190.21394348, -0.01221924, 0.01467736, 0.99981761, -0.00290222, -0.00086816, -0.00338817, 0.00000000, 0.00000000, 0.00000000, 0.98909418, 0.14697453, 0.00496484, -0.00815735
424169660.756460, -0.01387024, 0.01252747, 0.99714661, 0.01756461, -0.01195440, -0.03027748, -171.27529907, 138.08106995, 190.54678345, -0.01229719, 0.01466302, 0.99981689, -0.00213762, 0.00058051, -0.00538633, 0.00000000, 0.00000000, 0.00000000, 0.98908791, 0.14701544, 0.00500412, -0.00815619
424169660.772355, -0.01295471, 0.01545715, 0.99792480, 0.01528122, -0.00606215, -0.02321957, -171.27529907, 138.08106995, 190.54678345, -0.01215207, 0.01471763, 0.99981785, -0.00171817, -0.00219016, -0.00267124, 0.00000000, 0.00000000, 0.00000000, 0.98908642, 0.14702711, 0.00492823, -0.00817259
424169660.787673, -0.01155090, 0.01690674, 0.99668884, 0.01420104, 0.00217953, -0.01261832, -172.13082886, 139.62101746, 190.71319580, -0.01213416, 0.01470365, 0.99981827, -0.00082056, 0.00075350, -0.00189346, 0.00000000, 0.00000000, 0.00000000, 0.98908316, 0.14704978, 0.00492021, -0.00816447
424169660.803644, -0.01565552, 0.01525879, 0.99769592, 0.00715991, -0.00021705, -0.02902606, -171.95971680, 138.76548767, 191.21244812, -0.01212679, 0.01479289, 0.99981701, 0.00057589, 0.00211385, -0.00312820, 0.00000000, 0.00000000, 0.00000000, 0.98907774, 0.14708412, 0.00490972, -0.00820824
424169660.819509, -0.01269531, 0.01448059, 0.99540710, 0.00587706, -0.00242401, -0.00929044, -171.27529907, 140.13432312, 191.54527283, -0.01208020, 0.01475252, 0.99981821, -0.00351429, -0.00191988, -0.00441109, 0.00000000, 0.00000000, 0.00000000, 0.98907143, 0.14712851, 0.00488927, -0.00818506
424169660.835169, -0.01269531, 0.01448059, 0.99540710, 0.01761175, -0.00723528, -0.02205097, -171.95971680, 140.13432312, 190.87960815, -0.01217424, 0.01464475, 0.99981862, -0.00216902, -0.00257505, -0.00442680, 0.00000000, 0.00000000, 0.00000000, 0.98907727, 0.14709005, 0.00494403, -0.00813849
424169660.850752, -0.01513672, 0.01380920, 0.99368286, 0.01531904, -0.00372763, -0.02318015, -171.44641113, 140.30543518, 193.70869446, -0.01206764, 0.01465218, 0.99981982, -0.00062767, -0.00017159, -0.00441272, 0.00000000, 0.00000000, 0.00000000, 0.98907053, 0.14713732, 0.00489037, -0.00813455
424169660.867136, -0.01266479, 0.01327515, 0.99415588, 0.01530838, -0.00490927, -0.02552773, -171.44641113, 140.30543518, 193.70869446, -0.01212892, 0.01468460, 0.99981862, -0.00300779, -0.00087539, -0.00613575, 0.00000000, 0.00000000, 0.00000000, 0.98907412, 0.14711116, 0.00491851, -0.00815497
424169660.882590, -0.01539612, 0.01553345, 0.99569702, 0.00961428, 0.00679559, -0.02539191, -171.61750793, 141.16094971, 190.87960815, -0.01209615, 0.01466869, 0.99981922, -0.00056864, -0.00139355, -0.00566336, 0.00000000, 0.00000000, 0.00000000, 0.98906537, 0.14717100, 0.00490298, -0.00814499
424169660.897956, -0.01539612, 0.01553345, 0.99569702, 0.01648976, -0.00132093, -0.01032508, -170.41978455, 138.59439087, 191.71170044, -0.01211444, 0.01465133, 0.99981928, -0.00322065, -0.00180343, -0.00764703, 0.00000000, 0.00000000, 0.00000000, 0.98906072, 0.14720236, 0.00491305, -0.00813790
424169660.914234, -0.01519775, 0.01576233, 0.99444580, 0.01766049, -0.00371884, -0.01966398, -170.59088135, 138.42327881, 189.54827881, -0.01212893, 0.01469882, 0.99981838, -0.00319089, -0.00211032, -0.00366362, 0.00000000, 0.00000000, 0.00000000, 0.98905979, 0.14720710, 0.00491668, -0.00816248
424169660.930031, -0.01310730, 0.01153564, 0.99864197, 0.00942706, -0.00247860, -0.01507349, -170.59088135, 138.76548767, 190.21394348, -0.01209448, 0.01477651, 0.99981767, -0.00310328, 0.00098581, -0.00537187, 0.00000000, 0.00000000, 0.00000000, 0.98905626, 0.14722960, 0.00489373, -0.00819848
424169660.945736, -0.01541138, 0.01527405, 0.99319458, 0.01991246, -0.01075651, -0.02324966, -169.22206116, 138.42327881, 191.21244812, -0.01207460, 0.01466360, 0.99981958, -0.00103270, -0.00312795, -0.00117761, 0.00000000, 0.00000000, 0.00000000, 0.98906155, 0.14719725, 0.00489248, -0.00814101
424169660.962349, -0.01589966, 0.01527405, 0.99569702, 0.01411316, -0.00606988, -0.02555969, -169.39315796, 139.27880859, 190.71319580, -0.01196346, 0.01468664, 0.99982059, -0.00344792, 0.00058741, -0.00662599, 0.00000000, 0.00000000, 0.00000000, 0.98906147, 0.14719949, 0.00483580, -0.00814423
424169660.977545, -0.01367188, 0.01449585, 0.99465942, 0.01759710, -0.00840946, -0.02323475, -169.39315796, 139.27880859, 190.71319580, -0.01194805, 0.01466531, 0.99982107, -0.00460773, -0.00229043, -0.00566519, 0.00000000, 0.00000000, 0.00000000, 0.98905098, 0.14727082, 0.00482916, -0.00813290
424169660.993448, -0.01367188, 0.01449585, 0.99465942, 0.00722249, 0.00927819, -0.00326157, -171.61750793, 137.73886108, 190.21394348, -0.01190148, 0.01469333, 0.99982119, -0.00396766, -0.00062473, -0.00565007, 0.00000000, 0.00000000, 0.00000000, 0.98903662, 0.14736747, 0.00480327, -0.00814380
424169661.009140, -0.01481628, 0.01110840, 0.99314880, 0.00708720, -0.00369034, -0.02442918, -170.93309021, 138.76548767, 190.21394348, -0.01193019, 0.01467898, 0.99982107, -0.00174169, -0.00018313, -0.00516166, 0.00000000, 0.00000000, 0.00000000, 0.98904558, 0.14730710, 0.00481902, -0.00813852
424169661.026482, -0.01464844, 0.01405334, 0.99191284, 0.01179221, -0.00251269, -0.01854119, -170.41978455, 137.90997314, 193.04302979, -0.01190385, 0.01461965, 0.99982226, -0.00291244, -0.00351126, -0.00667346, 0.00000000, 0.00000000, 0.00000000, 0.98904190, 0.14733381, 0.00481015, -0.00810737
424169661.040516, -0.01632690, 0.01284790, 0.99392700, 0.01762001, -0.00724966, -0.02437884, -170.24867249, 140.13432312, 190.87960815, -0.01192732, 0.01455739, 0.99982291, -0.00272111, -0.00050405, -0.00791005, 0.00000000, 0.00000000, 0.00000000, 0.98904004, 0.14734737, 0.00482623, -0.00807837
424169661.056337, -0.01823425, 0.01190186, 0.99691772, 0.02229412, -0.00721770, -0.01501836, -171.27529907, 138.76548767, 190.87960815, -0.01186458, 0.01456790, 0.99982351, -0.00328739, -0.00004153, -0.00640003, 0.00000000, 0.00000000, 0.00000000, 0.98903587, 0.14737636, 0.00479419, -0.00807908
424169661.072494, -0.01823425, 0.01190186, 0.99691772, 0.01185826, -0.00022797, -0.02664919, -171.27529907, 138.76548767, 190.87960815, -0.01186273, 0.01468874, 0.99982172, -0.00182440, 0.00031065, -0.00516232, 0.00000000, 0.00000000, 0.00000000, 0.98903657, 0.14736870, 0.00478443, -0.00813868
424169661.087979, -0.01513672, 0.01405334, 0.99517822, 0.02355752, -0.00137313, -0.01257971, -171.95971680, 139.79211426, 191.54527283, -0.01192641, 0.01461919, 0.99982202, -0.00488878, -0.00175603, -0.00589500, 0.00000000, 0.00000000, 0.00000000, 0.98903220, 0.14739847, 0.00482081, -0.00810911
424169661.104140, -0.01287842, 0.01203918, 0.99464417, 0.02462598, -0.00959351, -0.01968955, -171.95971680, 140.13432312, 191.87811279, -0.01194037, 0.01470951, 0.99982053, -0.00319635, -0.00065617, -0.00464229, 0.00000000, 0.00000000, 0.00000000, 0.98903492, 0.14737769, 0.00482123, -0.00815471
424169661.119487, -0.01214600, 0.01202393, 0.99412537, 0.01413606, -0.00491007, -0.02670378, -173.15745544, 139.96322632, 192.04452515, -0.01187289, 0.01476671, 0.99982047, -0.00100553, -0.00272753, -0.00517631, 0.00000000, 0.00000000, 0.00000000, 0.98902968, 0.14741280, 0.00478335, -0.00817820
424169661.135263, -0.01802063, 0.01287842, 0.99592590, 0.01303218, 0.00217154, -0.01495844, -172.13082886, 140.30543518, 192.04452515, -0.01180978, 0.01483043, 0.99982029, -0.00235038, -0.00056346, -0.00191073, 0.00000000, 0.00000000, 0.00000000, 0.98903083, 0.14740476, 0.00474751, -0.00820502
424169661.151127, -0.01802063, 0.01287842, 0.99592590, 0.01521970, -0.00835380, -0.01627511, -172.98634338, 139.44990540, 191.21244812, -0.01186578, 0.01478356, 0.99982029, -0.00713141, -0.00234765, -0.00514563, 0.00000000, 0.00000000, 0.00000000, 0.98902973, 0.14741214, 0.00477860, -0.00818601
424169661.167094, -0.01333618, 0.01130676, 0.99688721, 0.00472551, -0.00366318, -0.02212581, -170.59088135, 139.44990540, 191.21244812, -0.01191401, 0.01468094, 0.99982125, -0.00097967, -0.00215347, -0.00590950, 0.00000000, 0.00000000, 0.00000000, 0.98902750, 0.14742873, 0.00480987, -0.00813889
424169661.182887, -0.01483154, 0.01184082, 0.99340820, 0.01991938, -0.00956794, -0.01973802, -170.59088135, 139.44990540, 191.21244812, -0.01185550, 0.01458816, 0.99982327, -0.00148068, -0.00328140, -0.00293609, 0.00000000, 0.00000000, 0.00000000, 0.98903145, 0.14740571, 0.00478797, -0.00808858
424169661.198529, -0.01365662, 0.01377869, 0.99516296, 0.01182843, -0.00257714, -0.02901674, -169.56427002, 138.08106995, 191.21244812, -0.01182147, 0.01454983, 0.99982429, -0.00301007, -0.00270901, -0.00641606, 0.00000000, 0.00000000, 0.00000000, 0.98903135, 0.14740804, 0.00477394, -0.00806712
424169661.214198, -0.01292419, 0.01400757, 0.99516296, 0.00952533, 0.00335052, -0.01613929, -169.05094910, 138.93659973, 192.04452515, -0.01172992, 0.01456375, 0.99982512, -0.00313214, -0.00124282, -0.00389923, 0.00000000, 0.00000000, 0.00000000, 0.98902136, 0.14747650, 0.00472708, -0.00806758
424169661.229817, -0.01292419, 0.01400757, 0.99516296, 0.01885092, -0.00134756, -0.01262844, -170.07757568, 137.90997314, 190.71319580, -0.01179643, 0.01451669, 0.99982506, -0.00282149, -0.00171457, -0.00518087, 0.00000000, 0.00000000, 0.00000000, 0.98901539, 0.14751636, 0.00476312, -0.00804940
424169661.246981, -0.01661682, 0.01455688, 0.99368286, 0.01886796, -0.00257954, -0.02312396, -170.24867249, 138.76548767, 191.54527283, -0.01190446, 0.01452597, 0.99982363, -0.00411727, -0.00289878, -0.00340944, 0.00000000, 0.00000000, 0.00000000, 0.98902455, 0.14745257, 0.00481638, -0.00806165
424169661.262906, -0.01121521, 0.01373291, 0.99264526, 0.01177969, -0.00609278, -0.03140373, -170.59088135, 139.10769653, 189.88111877, -0.01189498, 0.01455585, 0.99982333, -0.00472184, 0.00000103, -0.00614044, 0.00000000, 0.00000000, 0.00000000, 0.98901752, 0.14749916, 0.00480911, -0.00807596
424169661.277528, -0.01393127, 0.01426697, 0.99491882, 0.01293790, -0.00366478, -0.01505671, -170.59088135, 139.10769653, 189.88111877, -0.01183860, 0.01455645, 0.99982399, 0.00062339, -0.00082354, -0.00717870, 0.00000000, 0.00000000, 0.00000000, 0.98901073, 0.14754580, 0.00478080, -0.00807232
424169661.293675, -0.01356506, 0.01083374, 0.99588013, 0.00944996, -0.00131826, -0.01621785, -169.90646362, 138.08106995, 190.54678345, -0.01174911, 0.01449114, 0.99982595, -0.00215165, -0.00118547, -0.00740959, 0.00000000, 0.00000000, 0.00000000, 0.98900695, 0.14757452, 0.00474113, -0.00803355
424169661.309122, -0.01356506, 0.01083374, 0.99588013, 0.01760136, -0.00841665, -0.02439855, -170.41978455, 138.59439087, 192.04452515, -0.01177169, 0.01448158, 0.99982584, -0.00354813, -0.00190833, -0.00315226, 0.00000000, 0.00000000, 0.00000000, 0.98901222, 0.14753895, 0.00475329, -0.00803032
424169661.326312, -0.01408386, 0.01109314, 0.99488831, 0.00829708, -0.00135502, -0.02321398, -171.27529907, 138.08106995, 191.54527283, -0.01174335, 0.01442479, 0.99982697, -0.00116559, -0.00139378, -0.00467929, 0.00000000, 0.00000000, 0.00000000, 0.98901148, 0.14754591, 0.00474340, -0.00800017
424169661.340877, -0.01560974, 0.01354980, 0.99691772, 0.01995027, -0.00842198, -0.02321025, -170.59088135, 140.13432312, 191.21244812, -0.01168200, 0.01433769, 0.99982899, -0.00240186, -0.00324455, -0.00494066, 0.00000000, 0.00000000, 0.00000000, 0.98900772, 0.14757442, 0.00471926, -0.00795270
424169661.356430, -0.01795959, 0.01068115, 0.99566650, 0.01527323, -0.00604777, -0.02089170, -172.64413452, 139.79211426, 192.54377747, -0.01173438, 0.01431740, 0.99982864, -0.00387536, -0.00076760, -0.00291092, 0.00000000, 0.00000000, 0.00000000, 0.98900390, 0.14759949, 0.00474646, -0.00794666
424169661.373002, -0.01852417, 0.01315308, 0.99617004, 0.01405137, -0.00836153, -0.01861550, -171.44641113, 140.30543518, 190.04753113, -0.01166507, 0.01434295, 0.99982911, -0.00418881, -0.00053374, -0.00314025, 0.00000000, 0.00000000, 0.00000000, 0.98899611, 0.14765246, 0.00470987, -0.00795443
424169661.388176, -0.01852417, 0.01315308, 0.99617004, 0.01531105, -0.00371325, -0.02085229, -171.44641113, 140.30543518, 190.04753113, -0.01171588, 0.01431040, 0.99982893, -0.00444318, 0.00172659, -0.00564256, 0.00000000, 0.00000000, 0.00000000, 0.98899128, 0.14768456, 0.00473715, -0.00794224
424169661.404310, -0.01411438, 0.01278687, 0.99665833, 0.02352770, -0.00372203, -0.01494699, -172.98634338, 138.76548767, 192.54377747, -0.01171047, 0.01430489, 0.99982911, -0.00090855, -0.00202157, -0.00217896, 0.00000000, 0.00000000, 0.00000000, 0.98897567, 0.14778928, 0.00473403, -0.00793961
424169661.419676, -0.01661682, 0.01481628, 0.99568176, 0.02232901, -0.00607867, -0.01965466, -169.56427002, 137.73886108, 190.87960815, -0.01167192, 0.01436641, 0.99982870, -0.00244246, -0.00157955, -0.00317035, 0.00000000, 0.00000000, 0.00000000, 0.98898183, 0.14774734, 0.00471076, -0.00796699
424169661.435525, -0.01434326, 0.01206970, 0.99414062, 0.01997477, -0.00486320, -0.01383938, -171.61750793, 139.44990540, 192.87660217, -0.01169136, 0.01448237, 0.99982679, -0.00492546, 0.00033391, -0.00414501, 0.00000000, 0.00000000, 0.00000000, 0.98897851, 0.14776635, 0.00471166, -0.00802587
424169661.451551, -0.01431274, 0.01158142, 0.99565125, 0.01178715, -0.00130255, -0.01153761, -171.10420227, 140.30543518, 191.71170044, -0.01170716, 0.01460803, 0.99982476, -0.00263610, -0.00253833, -0.00568413, 0.00000000, 0.00000000, 0.00000000, 0.98898293, 0.14773337, 0.00471046, -0.00808903
424169661.468359, -0.01506042, 0.01112366, 0.99189758, 0.00938205, -0.00960363, -0.03497929, -169.22206116, 139.10769653, 191.87811279, -0.01164009, 0.01459238, 0.99982578, -0.00145195, -0.00352976, -0.00394564, 0.00000000, 0.00000000, 0.00000000, 0.98898536, 0.14771879, 0.00467856, -0.00807626
424169661.482953, -0.01506042, 0.01112366, 0.99189758, 0.01293897, -0.00486799, -0.02089649, -169.22206116, 139.10769653, 191.87811279, -0.01162600, 0.01451561, 0.99982703, -0.00416685, -0.00267479, -0.00292459, 0.00000000, 0.00000000, 0.00000000, 0.98897685, 0.14777790, 0.00467678, -0.00803753
424169661.499212, -0.01409912, 0.01232910, 0.99589539, 0.02227947, -0.00839189, -0.01620214, -169.05094910, 138.25218201, 190.04753113, -0.01159969, 0.01446619, 0.99982810, -0.00346074, -0.00334253, -0.00793049, 0.00000000, 0.00000000, 0.00000000, 0.98897338, 0.14780285, 0.00466722, -0.00801126
424169661.514696, -0.01710510, 0.01481628, 0.99768066, 0.00827551, -0.00371804, -0.02790913, -171.10420227, 137.90997314, 190.38035583, -0.01155621, 0.01448622, 0.99982828, -0.00254291, -0.00215712, -0.00393290, 0.00000000, 0.00000000, 0.00000000, 0.98897415, 0.14779810, 0.00464428, -0.00801793
424169661.529883, -0.01846313, 0.01023865, 0.98843384, 0.01649189, -0.00372683, -0.02200410, -168.53764343, 137.73886108, 191.54527283, -0.01155469, 0.01445338, 0.99982876, -0.00555041, 0.00036290, -0.00214812, 0.00000000, 0.00000000, 0.00000000, 0.98896686, 0.14784768, 0.00464555, -0.00800181
424169661.546804, -0.01783752, 0.01576233, 1.01245117, 0.05531492, 0.00207833, 0.00759480, -169.39315796, 136.88334656, 191.04602051, -0.01150667, 0.01443271, 0.99982965, -0.00109709, -0.00312595, -0.00417839, 0.00000000, 0.00000000, 0.00000000, 0.98896840, 0.14783886, 0.00462340, -0.00798799
424169661.562001, -0.01783752, 0.01576233, 1.01245117, 0.01997451, -0.00846486, -0.03019386, -170.59088135, 137.39665222, 190.87960815, -0.01157419, 0.01460308, 0.99982637, 0.00092356, -0.00643963, -0.02845187, 0.00000000, 0.00000000, 0.00000000, 0.98897894, 0.14776278, 0.00464482, -0.00807689
424169661.578316, -0.01715088, 0.01605225, 0.99369812, 0.00588106, -0.00243120, -0.01045424, -170.41978455, 138.93659973, 190.04753113, -0.01152405, 0.01513773, 0.99981898, -0.00631347, 0.00062460, 0.01263217, 0.00000000, 0.00000000, 0.00000000, 0.98897709, 0.14776273, 0.00458053, -0.00833760
424169661.593082, -0.01541138, 0.01458740, 0.98269653, 0.01061456, -0.00130308, -0.01271366, -170.41978455, 138.93659973, 190.04753113, -0.01163488, 0.01504193, 0.99981916, -0.00551600, 0.00101032, -0.00612105, 0.00000000, 0.00000000, 0.00000000, 0.98897738, 0.14776104, 0.00464243, -0.00829840
424169661.609526, -0.01765442, 0.01490784, 0.97946167, 0.04134478, 0.00909390, -0.00290870, -171.61750793, 139.79211426, 189.88111877, -0.01167574, 0.01497618, 0.99981970, -0.00373563, -0.00038877, -0.01712315, 0.00000000, 0.00000000, 0.00000000, 0.98897697, 0.14776464, 0.00466747, -0.00826892
424169661.627255, -0.01467896, 0.01522827, 0.99816895, 0.17513533, -0.01863494, -0.02758076, -171.78862000, 140.64764404, 191.37886047, -0.01173979, 0.01535797, 0.99981314, -0.00274080, 0.00089264, -0.01037222, 0.00000000, 0.00000000, 0.00000000, 0.98898922, 0.14767154, 0.00467173, -0.00846204
424169661.641112, -0.01467896, 0.01522827, 0.99816895, 0.17388045, -0.02449363, -0.03234729, -171.61750793, 139.44990540, 190.54678345, -0.01166245, 0.01685117, 0.99979001, -0.00553421, -0.00951169, -0.09207515, 0.00000000, 0.00000000, 0.00000000, 0.98898060, 0.14769013, 0.00452307, -0.00919492
424169661.656670, -0.01577759, 0.02111816, 1.00547791, 0.07168164, -0.01223243, -0.02738955, -171.27529907, 140.13432312, 192.21093750, -0.01116038, 0.02013236, 0.99973506, -0.00351857, -0.00490409, -0.00156609, 0.00000000, 0.00000000, 0.00000000, 0.98895179, 0.14778993, 0.00403139, -0.01078109
424169661.672702, -0.01608276, 0.02662659, 1.04022217, -0.05503156, 0.01422714, -0.01313950, -170.76199341, 139.62101746, 190.71319580, -0.01090568, 0.02126607, 0.99971437, -0.00487190, -0.00014791, 0.00576354, 0.00000000, 0.00000000, 0.00000000, 0.98893404, 0.14787374, 0.00382070, -0.01132332
424169661.688299, -0.01008606, 0.01617432, 0.98666382, -0.11011612, 0.02975044, -0.00530821, -170.76199341, 139.62101746, 190.71319580, -0.01096451, 0.02111864, 0.99971688, -0.00511825, 0.00550794, 0.04050532, 0.00000000, 0.00000000, 0.00000000, 0.98892603, 0.14793150, 0.00386004, -0.01125498
424169661.704188, -0.01136780, 0.01579285, 0.96743774, -0.03369405, 0.02824123, 0.00710292, -171.61750793, 140.13432312, 191.87811279, -0.01134897, 0.01925357, 0.99975020, -0.00351309, 0.00450437, 0.00998489, 0.00000000, 0.00000000, 0.00000000, 0.98894495, 0.14786139, 0.00418885, -0.01036069
424169661.719906, -0.01136780, 0.01579285, 0.96743774, 0.00239019, -0.00128018, -0.01629082, -171.61750793, 139.79211426, 191.21244812, -0.01181464, 0.01791802, 0.99976963, -0.00483270, -0.00758782, -0.04957434, 0.00000000, 0.00000000, 0.00000000, 0.98897345, 0.14770355, 0.00451943, -0.00973388
424169661.736588, -0.01223755, 0.00407410, 0.89941406, 0.17750102, -0.01506763, -0.01469372, -170.41978455, 137.56776428, 191.37886047, -0.01167900, 0.01796037, 0.99977046, 0.00031120, -0.00216752, -0.03233274, 0.00000000, 0.00000000, 0.00000000, 0.98898216, 0.14764662, 0.00444978, -0.00974454
424169661.751543, -0.02049255, 0.01818848, 0.96427917, 0.07278579, -0.01571159, -0.02278041, -169.90646362, 138.08106995, 191.21244812, -0.01160842, 0.01943453, 0.99974376, -0.00062913, -0.01536043, -0.10032967, 0.00000000, 0.00000000, 0.00000000, 0.98898828, 0.14756032, 0.00430697, -0.01046807
424169661.767586, 0.10081482, -0.08485413, 1.06062317, 0.05731442, -0.00450980, 0.07733846, -170.07757568, 137.90997314, 191.37886047, -0.01125897, 0.02064841, 0.99972337, -0.00923359, -0.00245993, -0.03544423, 0.00000000, 0.00000000, 0.00000000, 0.98898132, 0.14757251, 0.00404444, -0.01104273
424169661.783368, -0.00683594, 0.01696777, 1.01612854, 0.03305595, 0.00171454, 0.30996559, -169.56427002, 137.39665222, 190.21394348, -0.01082626, 0.02172229, 0.99970543, 0.01497665, -0.02471301, -0.01078330, 0.00000000, 0.00000000, 0.00000000, 0.98902979, 0.14721683, 0.00375536, -0.01154060
424169661.799526, -0.00683594, 0.01696777, 1.01612854, -0.04119910, 0.00954717, 0.37915398, -169.56427002, 137.39665222, 190.21394348, -0.01071467, 0.02170366, 0.99970704, 0.00187983, -0.00725359, -0.02006225, 0.00000000, 0.00000000, 0.00000000, 0.98935725, 0.14500261, 0.00372732, -0.01151485
424169661.814692, -0.15135193, -0.10374451, 1.03996277, 0.10104273, -0.31527566, 0.26231897, -169.73536682, 137.90997314, 190.71319580, -0.01015359, 0.02129451, 0.99972171, 0.01987344, -0.02266780, -0.08097474, 0.00000000, 0.00000000, 0.00000000, 0.98975202, 0.14230875, 0.00351006, -0.01126218
424169661.830270, 0.00711060, 0.19041443, 0.93630981, -0.02186349, 0.07729985, 0.21405211, -171.44641113, 137.56776428, 190.04753113, -0.00701591, 0.02284661, 0.99971437, -0.14433601, -0.12659112, 0.04024841, 0.00000000, 0.00000000, 0.00000000, 0.99010911, 0.13978961, 0.00187667, -0.01180238
424169661.846692, -0.05015564, 0.06793213, 0.98782349, -0.01849059, 0.05354232, 0.14967711, -171.10420227, 137.90997314, 189.04902649, -0.00482546, 0.02298503, 0.99972415, 0.01193605, 0.16742940, -0.06341435, 0.00000000, 0.00000000, 0.00000000, 0.99037069, 0.13794193, 0.00080431, -0.01171628
424169661.861805, -0.01458740, 0.07513428, 1.01239014, 0.07655949, -0.03569168, 0.14917910, -169.90646362, 137.73886108, 192.21093750, -0.00812110, 0.02196471, 0.99972576, -0.01789514, 0.14972718, 0.03099018, 0.00000000, 0.00000000, 0.00000000, 0.99060081, 0.13628250, 0.00252603, -0.01143408
424169661.878745, -0.01458740, 0.07513428, 1.01239014, 0.18038336, -0.09350359, 0.14115047, -171.95971680, 138.08106995, 190.87960815, -0.00660550, 0.02299014, 0.99971390, -0.02014316, 0.03947935, -0.00157544, 0.00000000, 0.00000000, 0.00000000, 0.99076914, 0.13503128, 0.00172031, -0.01183663
424169661.895067, -0.02964783, 0.12840271, 1.05186462, 0.39657851, -0.06019170, 0.05550800, -172.13082886, 138.93659973, 192.04452515, -0.00561510, 0.02488325, 0.99967462, -0.00750746, 0.13852312, 0.01118966, 0.00000000, 0.00000000, 0.00000000, 0.99093502, 0.13373516, 0.00111840, -0.01270638
424169661.909659, -0.02919006, 0.06156921, 0.98915100, 0.46699275, -0.15062413, 0.02796372, -172.13082886, 138.93659973, 192.04452515, -0.00454555, 0.02991755, 0.99954206, -0.02510228, 0.09848516, 0.05232259, 0.00000000, 0.00000000, 0.00000000, 0.99101205, 0.13291402, 0.00026417, -0.01512987
424169661.926038, -0.06477356, 0.08409119, 0.99754333, 0.26584047, -0.59462874, -0.03392308, -171.61750793, 138.76548767, 190.54678345, -0.00265500, 0.03696666, 0.99931300, -0.02653507, 0.02460255, -0.01016197, 0.00000000, 0.00000000, 0.00000000, 0.99100494, 0.13253562, -0.00113453, -0.01849937
424169661.941271, -0.02465820, 0.09681702, 1.03012085, 0.25923636, -0.59420131, -0.16084827, -172.13082886, 140.64764404, 193.37585449, 0.00393248, 0.04233348, 0.99909580, -0.05869627, 0.00232899, -0.04339206, 0.00000000, 0.00000000, 0.00000000, 0.99095103, 0.13252907, -0.00475580, -0.02072399
