Timestamp, AccelerationX, AccelerationY, AccelerationZ, GyroX, GyroY, GyroZ, MagnetometerX, MagnetometerY, MagnetometerZ, DMUserAccelerationX, DMUserAccelerationY, DMUserAccelerationZ, DMGravityX, DMGravityY, DMGravityZ, DMMagX, DMMagY, DMMagZ, DMAttitudeX, DMAttitudeY, DMAttitudeZ, DMAttitudeW 
424170167.505399, 0.12365723, -0.24566650, -0.87861633, -0.04422605, 0.01018260, -0.09223832, -163.23341370, 139.62101746, 237.64262390, 0.13637732, -0.20882703, -0.96839684, -0.01272009, -0.03683947, 0.08978054, 0.00000000, 0.00000000, 0.00000000, -0.08504010, 0.09257292, 0.97867742, -0.16244674
424170167.522179, 0.14057922, -0.24794006, -0.96115112, -0.00605443, 0.04748203, -0.06677610, -161.86457825, 139.27880859, 237.64262390, 0.13682736, -0.20818484, -0.96847165, -0.00137510, -0.03609312, 0.04458249, 0.00000000, 0.00000000, 0.00000000, -0.08515307, 0.09226661, 0.97879477, -0.16185372
424170167.536924, 0.13389587, -0.23320007, -1.00694275, 0.05389732, 0.04365587, -0.06621444, -162.03567505, 138.76548767, 236.47770691, 0.13743657, -0.20840430, -0.96833819, 0.00131160, -0.03199792, -0.03742964, 0.00000000, 0.00000000, 0.00000000, -0.08543801, 0.09236479, 0.97882971, -0.16143571
424170167.553150, 0.14419556, -0.25442505, -0.94972229, 0.03433986, 0.07539436, -0.04726605, -163.57562256, 138.93659973, 236.64411926, 0.13823059, -0.20887218, -0.96812433, -0.00433471, -0.02432788, -0.03881842, 0.00000000, 0.00000000, 0.00000000, -0.08583898, 0.09257163, 0.97884086, -0.16103644
424170167.568950, 0.15103149, -0.25213623, -0.94252014, 0.00917699, 0.05231807, -0.02580017, -163.57562256, 139.96322632, 237.30978394, 0.13938610, -0.20939645, -0.96784538, 0.00480946, -0.04502860, 0.01812307, 0.00000000, 0.00000000, 0.00000000, -0.08643472, 0.09277046, 0.97882000, -0.16072989
424170167.584096, 0.15103149, -0.25213623, -0.94252014, -0.03464080, 0.03864620, -0.01019138, -163.57562256, 139.96322632, 237.30978394, 0.14073746, -0.21119252, -0.96725935, 0.01029404, -0.04094371, 0.02473923, 0.00000000, 0.00000000, 0.00000000, -0.08725967, 0.09357385, 0.97868613, -0.16063359
424170167.600492, 0.13533020, -0.24942017, -0.92718506, -0.07911666, 0.05527950, -0.00223093, -162.89120483, 140.30543518, 237.97544861, 0.14142255, -0.21076283, -0.96725315, 0.00027055, -0.03925243, 0.03579565, 0.00000000, 0.00000000, 0.00000000, -0.08757207, 0.09329817, 0.97867337, -0.16070164
424170167.616734, 0.13592529, -0.23713684, -0.94129944, -0.10267338, 0.05544941, 0.00450953, -164.26002502, 140.98985291, 237.64262390, 0.14223011, -0.21120338, -0.96703863, -0.00287159, -0.03435631, 0.03436042, 0.00000000, 0.00000000, 0.00000000, -0.08803331, 0.09343884, 0.97858781, -0.16088885
424170167.632141, 0.13417053, -0.23326111, -0.98971558, -0.10007494, 0.07061132, 0.00478970, -164.26002502, 140.30543518, 238.64111328, 0.14300890, -0.20969050, -0.96725297, -0.01138659, -0.02459295, 0.00724628, 0.00000000, 0.00000000, 0.00000000, -0.08831301, 0.09259760, 0.97860494, -0.16111757
424170167.648769, 0.12225342, -0.21421814, -1.03569031, -0.04365560, 0.06560884, 0.00063969, -163.91783142, 139.96322632, 238.30828857, 0.14401567, -0.20798549, -0.96747172, -0.00984513, -0.02527562, -0.02224386, 0.00000000, 0.00000000, 0.00000000, -0.08869437, 0.09163760, 0.97861516, -0.16139465
424170167.663780, 0.12225342, -0.21421814, -1.03569031, 0.00039148, 0.02091780, -0.01477708, -164.43113708, 141.16094971, 237.14337158, 0.14429168, -0.20713145, -0.96761382, -0.02203826, -0.00708670, -0.06807650, 0.00000000, 0.00000000, 0.00000000, -0.08878246, 0.09116344, 0.97860786, -0.16165879
424170167.679576, 0.13316345, -0.23153687, -0.98620605, -0.02217934, 0.00340778, -0.03509141, -163.06230164, 139.44990540, 236.81053162, 0.14485243, -0.20689075, -0.96758151, -0.02172927, -0.01010450, -0.05014919, 0.00000000, 0.00000000, 0.00000000, -0.08904706, 0.09099375, 0.97859138, -0.16170859
424170167.696521, 0.13348389, -0.24017334, -0.96429443, -0.04102413, 0.00594418, -0.01895132, -163.40451050, 139.79211426, 236.81053162, 0.14455147, -0.20768701, -0.96745592, -0.01117439, -0.02906836, 0.00418384, 0.00000000, 0.00000000, 0.00000000, -0.08895803, 0.09142485, 0.97857364, -0.16162175
424170167.710878, 0.12849426, -0.23019409, -0.98765564, -0.04914012, 0.01778246, 0.00094755, -163.57562256, 138.59439087, 235.97845459, 0.14468710, -0.20700799, -0.96758115, -0.01146261, -0.02530707, -0.00489197, 0.00000000, 0.00000000, 0.00000000, -0.08896527, 0.09107465, 0.97860763, -0.16160969
424170167.727151, 0.11936951, -0.22114563, -1.00651550, -0.01843840, 0.02462811, 0.00254625, -164.26002502, 139.62101746, 236.64411926, 0.14489499, -0.20616226, -0.96773064, -0.01640073, -0.02403183, -0.01992501, 0.00000000, 0.00000000, 0.00000000, -0.08900492, 0.09062456, 0.97862858, -0.16171399
424170167.743146, 0.12057495, -0.22612000, -0.98335266, 0.01532516, 0.00226582, 0.00252521, -164.26002502, 139.62101746, 236.64411926, 0.14429083, -0.20605367, -0.96784401, -0.02492132, -0.01509196, -0.03867149, 0.00000000, 0.00000000, 0.00000000, -0.08871260, 0.09059838, 0.97862171, -0.16193073
424170167.758710, 0.12057495, -0.22612000, -0.98335266, 0.01884400, -0.00253666, -0.01614009, -164.77334595, 139.79211426, 237.80903625, 0.14440951, -0.20608053, -0.96782058, -0.02409395, -0.01289835, -0.03094344, 0.00000000, 0.00000000, 0.00000000, -0.08878727, 0.09058986, 0.97859280, -0.16206922
424170167.774249, 0.10815430, -0.22094727, -0.99369812, 0.04478638, 0.00082505, -0.01581358, -164.77334595, 140.13432312, 238.14187622, 0.14340791, -0.20679580, -0.96781695, -0.02483187, -0.01877488, -0.02101361, 0.00000000, 0.00000000, 0.00000000, -0.08835887, 0.09101775, 0.97857284, -0.16218410
424170167.790507, 0.09129333, -0.21607971, -0.95088196, 0.05181579, 0.06480083, -0.04609666, -164.08892822, 140.47653198, 237.14337158, 0.14335911, -0.20726342, -0.96772414, -0.04678624, -0.00855689, -0.01413315, 0.00000000, 0.00000000, 0.00000000, -0.08837005, 0.09126148, 0.97855896, -0.16212478
424170167.806840, 0.06478882, -0.19784546, -0.89613342, 0.01854918, 0.25742728, -0.07116073, -163.23341370, 139.96322632, 236.31129456, 0.14404689, -0.20796840, -0.96747077, -0.05275355, -0.00811131, 0.01658879, 0.00000000, 0.00000000, 0.00000000, -0.08876090, 0.09157582, 0.97852246, -0.16195422
424170167.821091, 0.09574890, -0.21005249, -0.95434570, -0.00750426, 0.45694758, -0.10767347, -163.57562256, 138.59439087, 236.97695923, 0.14477712, -0.20885226, -0.96717131, -0.07998830, 0.01100681, 0.07103787, 0.00000000, 0.00000000, 0.00000000, -0.08918967, 0.09197584, 0.97847255, -0.16179344
424170167.837422, 0.09574890, -0.21005249, -0.95434570, -0.04275172, 0.45344392, -0.13952461, -162.54899597, 139.27880859, 237.64262390, 0.15142885, -0.20850319, -0.96622759, -0.08366457, 0.01604408, 0.05013566, 0.00000000, 0.00000000, 0.00000000, -0.09246509, 0.09130400, 0.97828497, -0.16146918
424170167.852785, 0.14030457, -0.20646667, -1.05744934, 0.06671139, 0.52995654, -0.12779392, -162.89120483, 139.27880859, 236.64411926, 0.15759911, -0.20744760, -0.96546775, -0.03905357, -0.00071279, -0.03643958, 0.00000000, 0.00000000, 0.00000000, -0.09542397, 0.09033483, 0.97817243, -0.16097386
424170167.869194, 0.17060852, -0.22351074, -0.99360657, 0.07939229, 0.66667764, -0.09162606, -163.74671936, 140.13432312, 238.47470093, 0.16569124, -0.20734333, -0.96413440, -0.01060092, -0.01261211, -0.10350780, 0.00000000, 0.00000000, 0.00000000, -0.09942674, 0.08970574, 0.97792967, -0.16037696
424170167.885042, 0.13543701, -0.29620361, -0.84364319, 0.08684169, 0.96741510, -0.15286838, -163.74671936, 140.13432312, 238.47470093, 0.17544813, -0.20847510, -0.96216220, -0.00483961, -0.01503564, -0.03144437, 0.00000000, 0.00000000, 0.00000000, -0.10441144, 0.08953857, 0.97747086, -0.16009939
424170167.900541, 0.11288452, -0.28215027, -0.67257690, -0.07883010, 1.25615476, -0.23124840, -167.16880798, 138.42327881, 238.80754089, 0.18796501, -0.21047492, -0.95935887, -0.05252800, -0.08572869, 0.11571569, 0.00000000, 0.00000000, 0.00000000, -0.11087207, 0.08959879, 0.97680303, -0.15979760
424170167.917440, 0.11288452, -0.28215027, -0.67257690, -0.39341334, 1.58560297, -0.27558577, -167.33990479, 140.98985291, 238.64111328, 0.20634903, -0.20970117, -0.95574343, -0.07252945, -0.08799781, 0.19223940, 0.00000000, 0.00000000, 0.00000000, -0.12004190, 0.08785344, 0.97597933, -0.15917305
424170167.932332, 0.18788147, -0.21533203, -0.79884338, -0.55555298, 1.51729742, -0.32846497, -166.48439026, 139.44990540, 238.14187622, 0.22950788, -0.20433910, -0.95161527, -0.09716840, -0.01483814, 0.26542756, 0.00000000, 0.00000000, 0.00000000, -0.13126326, 0.08344046, 0.97502090, -0.15856194
424170167.948512, 0.34727478, -0.25302124, -1.06506348, -0.45414833, 1.61275230, -0.28042207, -168.19543457, 139.79211426, 237.80903625, 0.25394803, -0.19535261, -0.94728440, 0.01324861, -0.04829973, 0.00191087, 0.00000000, 0.00000000, 0.00000000, -0.14285536, 0.07713717, 0.97403413, -0.15779646
424170167.964592, 0.40429688, -0.22520447, -1.18452454, -0.13342331, 2.05209665, -0.11028736, -168.02432251, 139.62101746, 238.64111328, 0.27797613, -0.18622832, -0.94236314, 0.06929867, -0.06679292, -0.12270033, 0.00000000, 0.00000000, 0.00000000, -0.15428852, 0.07080594, 0.97289473, -0.15702681
424170167.979646, 0.23837280, -0.28608704, -1.14408875, 0.15569665, 2.69520531, -0.05114122, -167.68211365, 138.59439087, 235.97845459, 0.30632579, -0.18186934, -0.93439180, 0.09797108, -0.04333512, -0.25013274, 0.00000000, 0.00000000, 0.00000000, -0.16851422, 0.06638565, 0.97082032, -0.15717448
424170167.996485, 0.23837280, -0.28608704, -1.14408875, 0.50405703, 4.09605681, -0.28948188, -169.73536682, 137.90997314, 234.97996521, 0.34268558, -0.18231183, -0.92159045, -0.10431277, -0.10377521, -0.22249827, 0.00000000, 0.00000000, 0.00000000, -0.18751243, 0.06359129, 0.96737285, -0.15806648
424170168.011201, 0.20137024, -0.25270081, -0.95480347, 0.64996710, 5.03871676, -0.62022039, -171.95971680, 138.42327881, 235.47920227, 0.39491820, -0.18697779, -0.89948815, -0.26502013, -0.05769689, -0.15522988, 0.00000000, 0.00000000, 0.00000000, -0.21548393, 0.06182726, 0.96166610, -0.15793160
424170168.027710, 0.23747253, -0.33842468, -0.74543762, 0.65903809, 5.31343568, -0.92629536, -175.38180542, 139.79211426, 233.48220825, 0.46248308, -0.19214609, -0.86555719, -0.23801102, -0.13518545, -0.02529667, 0.00000000, 0.00000000, 0.00000000, -0.25231203, 0.05966600, 0.95322803, -0.15535422
424170168.042835, 0.50303650, -0.26007080, -0.61054993, 0.42169478, 5.66874025, -1.06366974, -175.38180542, 139.79211426, 233.48220825, 0.53495115, -0.19483680, -0.82211065, -0.29747859, -0.14358789, 0.07667302, 0.00000000, 0.00000000, 0.00000000, -0.29279880, 0.05668808, 0.94259701, -0.15022050
424170168.059093, 0.71797180, -0.25793457, -0.60403442, 0.26804104, 6.27645071, -1.08073208, -179.14610291, 138.42327881, 231.48521423, 0.60789454, -0.19155821, -0.77056456, -0.10485802, -0.06851258, 0.16001461, 0.00000000, 0.00000000, 0.00000000, -0.33480964, 0.05118826, 0.92982345, -0.14391183
424170168.074521, 0.71797180, -0.25793457, -0.60403442, 0.48432913, 7.40227969, -1.17257412, -181.19934082, 140.47653198, 230.81954956, 0.68153858, -0.18421051, -0.70821720, 0.03643320, -0.07372405, 0.10418279, 0.00000000, 0.00000000, 0.00000000, -0.37945453, 0.04365378, 0.91387980, -0.13759474
424170168.091072, 0.92295837, -0.24856567, -0.50903320, 0.67713374, 8.84522830, -1.15578102, -183.76591492, 142.01647949, 227.99046326, 0.75873286, -0.17562820, -0.62727916, 0.04447453, -0.07829332, 0.02574720, 0.00000000, 0.00000000, 0.00000000, -0.43023256, 0.03550146, 0.89253571, -0.13045915
424170168.106177, 1.16816711, -0.27424622, -0.30392456, 0.79518315, 10.09541519, -0.85085254, -185.47695923, 140.30543518, 226.32630920, 0.83779669, -0.16640930, -0.52000451, 0.20985654, -0.10789794, 0.08343530, 0.00000000, 0.00000000, 0.00000000, -0.48914435, 0.02712093, 0.86316787, -0.12224354
424170168.122663, 1.28762817, -0.27928162, -0.17033386, 0.80220058, 10.49419373, -0.34132457, -187.01689148, 138.08106995, 222.16589355, 0.90964937, -0.15863770, -0.38389078, 0.25851777, -0.11560851, 0.07996623, 0.00000000, 0.00000000, 0.00000000, -0.55469365, 0.01922397, 0.82392270, -0.11444116
424170168.137642, 1.18244934, -0.14958191, -0.03381348, 0.68634402, 10.10122833, 0.00239738, -188.89903259, 140.30543518, 218.00547791, 0.96151340, -0.15509757, -0.22679655, 0.32611474, -0.12418404, 0.05646269, 0.00000000, 0.00000000, 0.00000000, -0.62164284, 0.01272401, 0.77559329, -0.10887301
424170168.152964, 1.18244934, -0.14958191, -0.03381348, 0.38281875, 9.59471747, 0.31665944, -188.04351807, 139.10769653, 213.51223755, 0.98553598, -0.15548517, -0.06740330, 0.19691336, 0.00590325, 0.03358983, 0.00000000, 0.00000000, 0.00000000, -0.68281363, 0.00799385, 0.72290661, -0.10539300
424170168.169165, 1.14474487, -0.17919922, -0.00512695, -0.22310952, 8.06953576, 0.60842978, -188.38572693, 140.81874084, 209.51824951, 0.98346025, -0.15900415, 0.08673897, 0.17852707, -0.01236731, -0.06269112, 0.00000000, 0.00000000, 0.00000000, -0.73712511, 0.00400790, 0.66765849, -0.10422405
424170168.185290, 1.12170410, -0.10589600, -0.43614197, -0.15947648, 5.78184843, 1.07020300, -189.07014465, 139.44990540, 206.52275085, 0.96105784, -0.16720626, 0.22002235, 0.16031054, 0.03445479, -0.46834388, 0.00000000, 0.00000000, 0.00000000, -0.78103209, -0.00022799, 0.61521735, -0.10722145
424170168.200910, 0.72871399, -0.06465149, -0.67245483, 1.23863782, 4.27304623, 1.44135551, -189.07014465, 139.44990540, 206.52275085, 0.93081176, -0.18162684, 0.31717688, 0.19089235, 0.07573085, -0.75331885, 0.00000000, 0.00000000, 0.00000000, -0.81153360, -0.00128330, 0.57331096, -0.11281005
424170168.217085, 0.55247498, -0.19851685, 0.36978149, 1.69485143, 5.03474492, 1.38201815, -188.38572693, 139.79211426, 203.19442749, 0.90108716, -0.19792293, 0.38583478, -0.17237315, 0.13327144, -1.05828965, 0.00000000, 0.00000000, 0.00000000, -0.83239359, 0.00618956, 0.54211672, -0.11485672
424170168.232698, 0.55247498, -0.19851685, 0.36978149, 1.80585598, 6.53869005, 1.18365766, -187.87240601, 141.67427063, 203.02801514, 0.86501372, -0.20721477, 0.45696092, -0.31253874, 0.00869792, -0.08717942, 0.00000000, 0.00000000, 0.00000000, -0.85330816, 0.01859168, 0.50926263, -0.11032279
424170168.248942, 0.63462830, -0.19012451, 0.58988953, 1.90735571, 7.56151222, 1.13312524, -186.50357056, 142.35868835, 201.03100586, 0.81345010, -0.21028583, 0.54229027, -0.24815777, 0.04367511, -0.01198634, 0.00000000, 0.00000000, 0.00000000, -0.87767753, 0.02876274, 0.46683513, -0.10449789
424170168.264918, 0.50727844, -0.21054077, 0.50906372, 1.58859716, 6.85980336, 1.19955433, -184.27922058, 141.84536743, 198.20193481, 0.74110389, -0.20669198, 0.63878274, -0.11119058, -0.02537894, -0.05571391, 0.00000000, 0.00000000, 0.00000000, -0.90442325, 0.03754959, 0.41374172, -0.09708968
424170168.279755, 0.29806519, -0.07278442, 0.08489990, 1.24995386, 4.32004330, 1.11986323, -184.10812378, 140.30543518, 196.37135315, 0.65942061, -0.20151831, 0.72426158, -0.15214218, -0.00902246, -0.21519785, 0.00000000, 0.00000000, 0.00000000, -0.92736735, 0.04604980, 0.36004110, -0.09077237
424170168.296650, 0.30484009, -0.16484070, 0.39476013, 1.22143886, 1.59754245, 1.02057153, -182.73928833, 141.67427063, 195.04002380, 0.59277594, -0.19725268, 0.78083807, -0.29471073, 0.12446825, -0.69593817, 0.00000000, 0.00000000, 0.00000000, -0.94204666, 0.05447123, 0.31960636, -0.08621334
424170168.311573, 0.43270874, -0.23268127, 0.84693909, 0.98722290, 1.27824169, 0.89757184, -183.42370605, 140.98985291, 194.04151917, 0.55967999, -0.19127937, 0.80633152, -0.25483993, 0.02643867, -0.41157138, 0.00000000, 0.00000000, 0.00000000, -0.94819771, 0.06392853, 0.30056250, -0.08060045
424170168.327578, 0.43270874, -0.23268127, 0.84693909, 1.08666400, 2.21257554, 0.69074436, -180.68603516, 139.27880859, 192.04452515, 0.54113096, -0.18630491, 0.82004130, -0.28145692, -0.05202211, -0.13643229, 0.00000000, 0.00000000, 0.00000000, -0.95117330, 0.07273241, 0.29024602, -0.07574032
424170168.343342, 0.68394470, -0.24856567, 0.88354492, 1.22654627, 2.69460157, 0.61645255, -180.17272949, 138.42327881, 192.54377747, 0.51209712, -0.17777966, 0.84032786, 0.15259098, 0.07995557, 0.07877004, 0.00000000, 0.00000000, 0.00000000, -0.95591232, 0.07997224, 0.27372156, -0.07008980
424170168.358731, 0.48583984, -0.15776062, 0.91291809, 1.10762654, 1.40962581, 0.72993144, -180.17272949, 138.42327881, 192.54377747, 0.47833493, -0.16883877, 0.86179417, 0.04507205, 0.02238490, -0.17801730, 0.00000000, 0.00000000, 0.00000000, -0.96102246, 0.08563243, 0.25467299, -0.06515052
424170168.374767, 0.16131592, -0.22496033, 1.60900879, -0.24254553, 1.48941172, 0.54491871, -179.14610291, 140.81874084, 191.87811279, 0.44860685, -0.15593985, 0.88001966, 0.03723300, -0.00182077, 0.03289840, 0.00000000, 0.00000000, 0.00000000, -0.96511155, 0.09257184, 0.23797160, -0.05796269
424170168.391614, 0.16822815, -0.12388611, 1.29238892, -0.71540709, 0.01318265, 0.37101509, -181.19934082, 140.81874084, 193.87510681, 0.42763516, -0.15799831, 0.89003634, -0.26631925, -0.06696201, 0.71897244, 0.00000000, 0.00000000, 0.00000000, -0.96725380, 0.09715071, 0.22696992, -0.05887686
424170168.406319, 0.16822815, -0.12388611, 1.29238892, -0.83360085, -0.53502454, 0.33153186, -181.88375854, 142.18757629, 191.87811279, 0.41933364, -0.16925927, 0.89191401, -0.22556226, 0.05642052, 0.30602300, 0.00000000, 0.00000000, 0.00000000, -0.96754553, 0.09905889, 0.22331406, -0.06460512
424170168.422943, 0.22967529, -0.14505005, 0.90805054, -0.72822888, -1.23278259, 0.27791737, -181.88375854, 142.87199402, 193.20944214, 0.42301506, -0.18391521, 0.88726175, -0.24222893, 0.01193340, 0.17542133, 0.00000000, 0.00000000, 0.00000000, -0.96619443, 0.10049488, 0.22635828, -0.07163130
424170168.438014, 0.42518616, -0.16278076, 0.71621704, -0.91967368, -1.53174320, 0.46529632, -183.42370605, 143.04309082, 193.37585449, 0.43616778, -0.19607013, 0.87824494, -0.04159076, 0.01394123, -0.04392487, 0.00000000, 0.00000000, 0.00000000, -0.96370178, 0.10198697, 0.23443815, -0.07691739
424170168.453195, 0.51000977, -0.41423035, 0.28015137, 0.25699052, 2.75242892, -0.14689491, -180.34382629, 142.70088196, 191.04602051, 0.45545238, -0.21087545, 0.86492467, -0.03026622, 0.04809470, -0.14870761, 0.00000000, 0.00000000, 0.00000000, -0.95996694, 0.10452659, 0.24626267, -0.08302029
424170168.469724, 0.64308167, -0.09542847, -0.05541992, 0.99009618, 3.68069848, -0.20638114, -177.77726746, 140.81874084, 190.54678345, 0.43717051, -0.21620695, 0.87300432, 0.07283927, -0.19802339, -0.59285295, 0.00000000, 0.00000000, 0.00000000, -0.96209166, 0.10431584, 0.23659951, -0.08670941
424170168.485459, 0.64308167, -0.09542847, -0.05541992, 1.82918500, 3.38733185, 0.09892259, -174.69738770, 142.18757629, 190.21394348, 0.38609192, -0.20318088, 0.89980584, 0.46225098, -0.07784024, -0.79687005, 0.00000000, 0.00000000, 0.00000000, -0.96935984, 0.10121474, 0.20782488, -0.08310175
424170168.501686, 0.18330383, -0.25065613, 0.56558228, 1.99274358, 4.24489822, 0.37565698, -174.35517883, 140.13432312, 188.54977417, 0.33790335, -0.18131210, 0.92355144, 0.04143016, -0.01206253, -0.72648418, 0.00000000, 0.00000000, 0.00000000, -0.97542469, 0.10159914, 0.18092597, -0.07409503
424170168.517962, -0.07475281, -0.14593506, 1.21871948, 1.57665688, 5.82847452, 0.51181482, -174.35517883, 140.13432312, 188.54977417, 0.27914488, -0.15278377, 0.94801646, -0.20465146, -0.04507696, 0.06863085, 0.00000000, 0.00000000, 0.00000000, -0.98138674, 0.10434710, 0.14881374, -0.06201796
424170168.532721, 0.03495789, 0.38363647, 0.85026550, 1.55848640, 4.55245710, 0.46238735, -171.61750793, 138.76548767, 188.88261414, 0.19850063, -0.12959805, 0.97149462, -0.27325344, -0.01633700, 0.24722484, 0.00000000, 0.00000000, 0.00000000, -0.98699388, 0.10765874, 0.10645288, -0.05404131
424170168.549206, 0.41741943, 0.05345154, 1.08908081, 1.52954156, 1.85233826, 0.58692981, -172.47303772, 140.64764404, 190.38035583, 0.11116435, -0.10447311, 0.98829544, -0.07620647, 0.48810959, -0.13802993, 0.00000000, 0.00000000, 0.00000000, -0.99097316, 0.11009049, 0.06118929, -0.04591466
424170168.564528, 0.41741943, 0.05345154, 1.08908081, 1.39625222, 0.92850845, 0.76331869, -171.95971680, 140.13432312, 189.54827881, 0.06686994, -0.08161985, 0.99441773, 0.21210650, 0.31414855, 0.04673523, 0.00000000, 0.00000000, 0.00000000, -0.99209547, 0.11382195, 0.03792160, -0.03678438
424170168.580115, 0.06446838, -0.02873230, 1.63987732, 1.00923446, 1.02112121, 0.48265827, -171.27529907, 139.79211426, 189.21545410, 0.05258652, -0.05890665, 0.99687743, 0.26520827, -0.03012839, 0.63576722, 0.00000000, 0.00000000, 0.00000000, -0.99201327, 0.11978485, 0.02965763, -0.02610932
424170168.596584, -0.22412109, 0.10743713, 1.44889832, 0.43516239, 0.02200703, 0.17017919, -170.41978455, 139.62101746, 189.38186646, 0.03400441, -0.04146378, 0.99856120, -0.16184254, 0.06812088, 0.48457783, 0.00000000, 0.00000000, 0.00000000, -0.99184546, 0.12459207, 0.01946059, -0.01845777
424170168.611673, -0.18968201, -0.02996826, 1.15940857, 0.22319367, -1.37789425, 0.11316943, -169.73536682, 138.25218201, 190.38035583, 0.02750555, -0.03216634, 0.99910396, -0.25162664, 0.13960347, 0.44979432, 0.00000000, 0.00000000, 0.00000000, -0.99170363, 0.12679076, 0.01568490, -0.01421238
424170168.627294, -0.15910339, -0.05146790, 1.43249512, -0.22857272, -1.19329298, -0.07119215, -171.44641113, 138.25218201, 189.38186646, 0.04125389, -0.02793954, 0.99875796, -0.23093590, -0.00202872, 0.16065060, 0.00000000, 0.00000000, 0.00000000, -0.99145692, 0.12803187, 0.02225312, -0.01121648
424170168.643337, -0.15910339, -0.05146790, 1.43249512, -0.53533719, 0.01875771, -0.27413062, -169.39315796, 137.22555542, 187.38487244, 0.06423636, -0.02878395, 0.99751949, -0.29156178, 0.00852028, 0.40216920, 0.00000000, 0.00000000, 0.00000000, -0.99111629, 0.12825074, 0.03372045, -0.01015754
424170168.660180, 0.10533142, -0.00918579, 1.14759827, -0.39893381, 1.04449551, -0.19855064, -171.10420227, 139.62101746, 187.71769714, 0.07082748, -0.03607833, 0.99683589, -0.11639022, -0.00611223, 0.30672243, 0.00000000, 0.00000000, 0.00000000, -0.99116649, 0.12651854, 0.03744243, -0.01342055
424170168.674910, 0.17727661, -0.02479553, 0.65235901, 0.14162850, 0.88846383, -0.03489886, -171.10420227, 139.62101746, 187.71769714, 0.05833275, -0.04358877, 0.99734515, 0.15239112, 0.01616873, -0.16839616, 0.00000000, 0.00000000, 0.00000000, -0.99155701, 0.12444780, 0.03167443, -0.01800459
424170168.690784, 0.01916504, -0.02803040, 0.66574097, 0.62797845, 0.64129904, 0.06614307, -171.10420227, 138.59439087, 189.04902649, 0.04319538, -0.04438775, 0.99808007, 0.13408123, 0.01959221, -0.34572110, 0.00000000, 0.00000000, 0.00000000, -0.99183712, 0.12368982, 0.02418977, -0.01935988
424170168.706391, -0.15400696, 0.05770874, 0.85725403, 0.79693311, 0.45327774, 0.01122895, -170.93309021, 138.76548767, 189.54827881, 0.03144173, -0.03690426, 0.99882406, -0.01227670, 0.00887386, -0.33308309, 0.00000000, 0.00000000, 0.00000000, -0.99197567, 0.12408178, 0.01789481, -0.01636301
424170168.722589, -0.15400696, 0.05770874, 0.85725403, 0.77167356, 0.38594131, -0.14262719, -170.24867249, 138.42327881, 191.54527283, 0.02339736, -0.02497933, 0.99941415, -0.17740431, 0.08268806, -0.14216010, 0.00000000, 0.00000000, 0.00000000, -0.99206829, 0.12452937, 0.01316508, -0.01093697
424170168.738154, -0.05665588, 0.06109619, 0.88691711, 0.84597016, 0.23810817, -0.20018636, -169.90646362, 137.05444336, 191.21244812, 0.01726634, -0.01261678, 0.99977130, -0.16095836, 0.08361593, -0.09103414, 0.00000000, 0.00000000, 0.00000000, -0.99222667, 0.12398342, 0.00934927, -0.00518958
424170168.753506, 0.11900330, 0.12942505, 0.82351685, 1.08906750, 0.00611675, -0.12587058, -169.05094910, 136.88334656, 190.04753113, 0.01240937, -0.00009842, 0.99992299, 0.02628692, 0.08919448, -0.17451406, 0.00000000, 0.00000000, 0.00000000, -0.99243644, 0.12260269, 0.00616402, 0.00071190
424170168.769785, 0.19670105, 0.10137939, 0.93844604, 1.17294616, -0.08562675, 0.02594105, -169.39315796, 136.54113770, 188.71620178, 0.01115385, 0.01575889, 0.99981362, 0.10784944, 0.11366616, -0.17629676, 0.00000000, 0.00000000, 0.00000000, -0.99254336, 0.12150918, 0.00457834, 0.00849913
424170168.785580, 0.09167480, 0.10581970, 1.08816528, 1.10446324, 0.36977193, 0.18297062, -168.19543457, 135.68562317, 189.88111877, 0.01249251, 0.03406148, 0.99934167, 0.18420854, 0.06731791, -0.06089561, 0.00000000, 0.00000000, 0.00000000, -0.99244064, 0.12137716, 0.00413325, 0.01766597
424170168.801423, 0.09167480, 0.10581970, 1.08816528, 0.87759307, 0.82401160, 0.19982603, -168.87985229, 133.97457886, 189.54827881, 0.00942394, 0.05181099, 0.99861246, 0.08225087, 0.05400871, 0.08955284, 0.00000000, 0.00000000, 0.00000000, -0.99210681, 0.12259810, 0.00149985, 0.02629694
424170168.818060, 0.05938721, 0.12666321, 1.19291687, 0.69318541, 1.13911123, 0.21596505, -168.02432251, 134.48788452, 191.04602051, -0.00089622, 0.06694447, 0.99775630, 0.04633689, 0.05598034, 0.15951604, 0.00000000, 0.00000000, 0.00000000, -0.99166883, 0.12438284, -0.00461292, 0.03317485
424170168.833019, 0.08578491, 0.16564941, 1.14788818, 0.54854168, 0.86829917, 0.27627553, -168.02432251, 134.48788452, 191.04602051, -0.01761970, 0.07849510, 0.99675876, 0.08880195, 0.06763832, 0.15430324, 0.00000000, 0.00000000, 0.00000000, -0.99116010, 0.12641618, -0.01371573, 0.03784823
424170168.849368, 0.11183167, 0.15829468, 1.19587708, 0.44171696, 0.52942524, 0.31140209, -168.19543457, 135.68562317, 190.87960815, -0.03277070, 0.08798185, 0.99558288, 0.11855561, 0.07766756, 0.15230531, 0.00000000, 0.00000000, 0.00000000, -0.99057323, 0.12867056, -0.02193968, 0.04155971
424170168.864465, -0.10409546, -0.06587219, 2.41595459, -1.22618168, -0.83030785, 0.17701925, -169.22206116, 137.39665222, 191.21244812, -0.04236967, 0.09542623, 0.99453437, 0.15420133, 0.06286845, 0.20134269, 0.00000000, 0.00000000, 0.00000000, -0.98996964, 0.13125281, -0.02730945, 0.04457578
424170168.880361, -0.10409546, -0.06587219, 2.41595459, -0.10392906, -0.04350034, 0.23794838, -170.24867249, 137.39665222, 191.54527283, -0.04044742, 0.09237149, 0.99490279, -0.06364804, -0.15824369, 1.42105186, 0.00000000, 0.00000000, 0.00000000, -0.98977061, 0.13343737, -0.02624663, 0.04312461
424170168.896757, 0.06488037, 0.04307556, 1.33479309, -0.78440134, -0.57332985, 0.21967271, -170.93309021, 136.37004089, 190.87960815, -0.03489298, 0.08230957, 0.99599582, -0.03168112, 0.16187684, 0.44609711, 0.00000000, 0.00000000, 0.00000000, -0.98979038, 0.13532514, -0.02288346, 0.03845064
424170168.912054, 0.05442810, 0.11582947, 0.78181458, -0.66804304, -1.08749144, 0.23092456, -169.05094910, 136.88334656, 190.38035583, -0.02986483, 0.07669390, 0.99660730, 0.17302279, -0.09422625, 0.12747715, 0.00000000, 0.00000000, 0.00000000, -0.98969164, 0.13716452, -0.02007238, 0.03596446
424170168.927821, 0.08335876, -0.03578186, 0.93101501, -0.28883473, -0.26889458, 0.24505769, -169.22206116, 137.05444336, 189.21545410, -0.01309972, 0.06149815, 0.99802125, 0.06752782, 0.05433132, -0.21620665, 0.00000000, 0.00000000, 0.00000000, -0.98980570, 0.13890748, -0.01076502, 0.02955502
424170168.943449, -0.01914978, 0.08103943, 0.63987732, -0.42086281, 0.07126246, 0.20629565, -166.82659912, 135.34341431, 189.54827881, -0.00460859, 0.05771824, 0.99832225, 0.08796735, -0.09350009, -0.06730726, 0.00000000, 0.00000000, 0.00000000, -0.98961493, 0.14079566, -0.00634893, 0.02825868
424170168.960770, -0.19892883, -0.10990906, 1.39555359, -0.47846592, 0.93265766, 0.14791623, -168.53764343, 137.39665222, 188.21694946, -0.00365994, 0.04962299, 0.99876130, -0.01548984, 0.03141644, -0.35888401, 0.00000000, 0.00000000, 0.00000000, -0.98946035, 0.14264946, -0.00535335, 0.02430400
424170168.975166, -0.19892883, -0.10990906, 1.39555359, -0.94001704, 0.59820643, 0.01647165, -168.53764343, 137.39665222, 188.21694946, -0.01261152, 0.04592869, 0.99886513, -0.09079729, -0.00170872, 0.02979090, 0.00000000, 0.00000000, 0.00000000, -0.98924470, 0.14431727, -0.00955752, 0.02181971
424170168.991444, -0.04231262, -0.02891541, 1.06567383, -0.19958315, 0.11468371, 0.06035336, -168.87985229, 137.39665222, 190.21394348, -0.02368889, 0.03001058, 0.99926883, -0.03258552, -0.01110494, 0.24265927, 0.00000000, 0.00000000, 0.00000000, -0.98926940, 0.14484635, -0.01389589, 0.01313345
424170169.006859, 0.01779175, 0.00370789, 0.88601685, -0.00335292, -0.04624313, 0.07018921, -170.41978455, 139.27880859, 189.71469116, -0.02682924, 0.02307753, 0.99937361, -0.01548338, -0.05199294, 0.06630021, 0.00000000, 0.00000000, 0.00000000, -0.98921508, 0.14539712, -0.01495233, 0.00946684
424170169.022869, 0.01443481, -0.00801086, 1.03251648, -0.06060556, 0.05814054, 0.10043180, -170.24867249, 138.42327881, 189.88111877, -0.02534468, 0.01526646, 0.99956220, 0.04313642, -0.01155858, -0.11354535, 0.00000000, 0.00000000, 0.00000000, -0.98917461, 0.14599551, -0.01365256, 0.00570174
424170169.038616, 0.01443481, -0.00801086, 1.03251648, -0.07022143, 0.05254790, 0.13166242, -168.70874023, 136.88334656, 190.38035583, -0.02580407, 0.01443110, 0.99956286, 0.04023888, -0.02244196, 0.03295363, 0.00000000, 0.00000000, 0.00000000, -0.98906925, 0.14670869, -0.01382261, 0.00524498
424170169.053820, 0.00343323, -0.01556396, 0.95960999, -0.00268420, 0.01501197, 0.16200169, -169.39315796, 137.90997314, 189.04902649, -0.02675391, 0.01318653, 0.99955505, 0.01540137, 0.01234142, -0.02004763, 0.00000000, 0.00000000, 0.00000000, -0.98891147, 0.14775532, -0.01420597, 0.00454465
424170169.069990, -0.04281616, 0.01086426, 1.02777100, -0.02512719, 0.00568052, 0.14298938, -168.02432251, 136.88334656, 189.38186646, -0.02526127, 0.01131618, 0.99961686, 0.01822697, -0.02507960, -0.00471327, 0.00000000, 0.00000000, 0.00000000, -0.98873499, 0.14903532, -0.01333416, 0.00371265
424170169.085839, -0.01930237, 0.03866577, 0.97715759, -0.05293299, 0.02907852, 0.12679576, -169.05094910, 137.22555542, 189.71469116, -0.02526806, 0.01111669, 0.99961889, -0.01118519, 0.02411585, 0.01632654, 0.00000000, 0.00000000, 0.00000000, -0.98854594, 0.15028763, -0.01332721, 0.00359663
424170169.102402, -0.07872009, 0.03131104, 1.00044250, -0.01502742, 0.02362037, 0.03166179, -166.65548706, 136.88334656, 190.71319580, -0.02534838, 0.01195663, 0.99960715, 0.00604601, 0.02670914, -0.02244958, 0.00000000, 0.00000000, 0.00000000, -0.98835218, 0.15153733, -0.01343514, 0.00398885
424170169.118401, -0.01475525, 0.00866699, 0.99537659, -0.00193665, 0.01968449, -0.02762497, -168.87985229, 137.39665222, 189.21545410, -0.02572528, 0.01146881, 0.99960327, -0.05299481, 0.01984223, 0.00083925, 0.00000000, 0.00000000, 0.00000000, -0.98825642, 0.15215410, -0.01358679, 0.00371069
424170169.133356, -0.01475525, 0.00866699, 0.99537659, 0.00158538, 0.02328162, -0.00890614, -168.87985229, 137.39665222, 189.21545410, -0.02591112, 0.01139188, 0.99959934, 0.00226000, 0.00278353, 0.00935757, 0.00000000, 0.00000000, 0.00000000, -0.98827097, 0.15205313, -0.01367243, 0.00365993
424170169.149590, -0.03977966, 0.00192261, 0.98323059, 0.02234685, -0.00370845, -0.01379544, -169.90646362, 137.73886108, 190.87960815, -0.02573375, 0.01113453, 0.99960685, 0.01966075, 0.01080760, -0.01066944, 0.00000000, 0.00000000, 0.00000000, -0.98828404, 0.15198050, -0.01356491, 0.00354722
424170169.164753, -0.00881958, -0.00175476, 0.99974060, 0.02812298, -0.00835221, -0.00450181, -169.56427002, 138.42327881, 190.54678345, -0.02583669, 0.01130506, 0.99960226, 0.00011037, -0.00338575, 0.00007731, 0.00000000, 0.00000000, 0.00000000, -0.98827437, 0.15203584, -0.01362897, 0.00362292
424170169.180421, -0.00053406, -0.04328918, 1.00537109, 0.01901071, 0.01517949, 0.01790949, -170.24867249, 138.76548767, 190.54678345, -0.02479192, 0.01088443, 0.99963337, 0.01597234, -0.01263919, 0.00010722, 0.00000000, 0.00000000, 0.00000000, -0.98829193, 0.15197287, -0.01308029, 0.00349529
424170169.197468, -0.00663757, -0.00129700, 0.99574280, 0.00670717, 0.00419128, 0.11885555, -169.56427002, 137.39665222, 190.54678345, -0.02483254, 0.01114807, 0.99962944, 0.02429849, -0.05443726, 0.00574163, 0.00000000, 0.00000000, 0.00000000, -0.98827787, 0.15205782, -0.01312073, 0.00362138
424170169.212329, -0.00663757, -0.00129700, 0.99574280, 0.00459795, 0.00016698, 0.03147510, -169.56427002, 138.76548767, 189.21545410, -0.02493437, 0.01129411, 0.99962527, 0.06207426, -0.04754899, -0.00366887, 0.00000000, 0.00000000, 0.00000000, -0.98815703, 0.15283435, -0.01318507, 0.00367545
424170169.228068, 0.00126648, 0.00204468, 0.96977234, -0.00478171, -0.00944890, -0.02232155, -167.51101685, 137.39665222, 189.21545410, -0.02399728, 0.01071406, 0.99965459, -0.08807853, 0.12136602, 0.00478570, 0.00000000, 0.00000000, 0.00000000, -0.98803901, 0.15364317, -0.01268038, 0.00345004
424170169.243761, -0.01420593, 0.00741577, 0.99386597, -0.02297509, 0.03515905, 0.00267461, -167.85322571, 137.05444336, 189.54827881, -0.02378913, 0.01070545, 0.99965966, -0.00527887, 0.01410534, 0.01041112, 0.00000000, 0.00000000, 0.00000000, -0.98805614, 0.15354120, -0.01257650, 0.00346308
424170169.259797, -0.01728821, -0.00689697, 0.98628235, 0.02933658, -0.00962600, -0.02080488, -168.70874023, 140.30543518, 189.04902649, -0.02370678, 0.01013694, 0.99966758, 0.00950085, -0.00272117, -0.00580159, 0.00000000, 0.00000000, 0.00000000, -0.98804365, 0.15363437, -0.01249243, 0.00318731
424170169.275816, -0.01531982, 0.00520325, 1.01208496, 0.02910462, -0.02602494, -0.03039199, -169.22206116, 138.42327881, 190.21394348, -0.02400059, 0.01023614, 0.99965954, 0.00671238, -0.01713311, -0.01337719, 0.00000000, 0.00000000, 0.00000000, -0.98803223, 0.15369475, -0.01264545, 0.00321298
424170169.291756, -0.01531982, 0.00520325, 1.01208496, -0.01029392, 0.01634142, -0.00914609, -169.22206116, 138.42327881, 190.21394348, -0.02354498, 0.01064592, 0.99966609, 0.00575324, -0.01369768, 0.00637639, 0.00000000, 0.00000000, 0.00000000, -0.98804830, 0.15360209, -0.01245149, 0.00345164
424170169.306963, -0.01504517, 0.01777649, 0.98171997, 0.00699506, -0.01193283, -0.03620701, -169.56427002, 138.42327881, 188.88261414, -0.02362723, 0.01049636, 0.99966574, 0.00435538, 0.00312973, 0.00001383, 0.00000000, 0.00000000, 0.00000000, -0.98805556, 0.15355481, -0.01248048, 0.00337202
424170169.323122, -0.02093506, 0.01197815, 0.99569702, 0.01883840, -0.00492818, -0.02549125, -170.07757568, 138.25218201, 191.04602051, -0.02366622, 0.01038933, 0.99966592, 0.00067122, 0.00482368, -0.00769205, 0.00000000, 0.00000000, 0.00000000, -0.98806350, 0.15350403, -0.01249135, 0.00331678
424170169.338425, -0.01791382, -0.00103760, 0.98982239, 0.02126667, 0.00453297, -0.00319446, -169.90646362, 138.42327881, 190.21394348, -0.02352021, 0.01055404, 0.99966764, 0.00258515, 0.00142411, -0.00397063, 0.00000000, 0.00000000, 0.00000000, -0.98808767, 0.15335115, -0.01243132, 0.00341130
424170169.353846, -0.02011108, 0.00065613, 1.00883484, 0.01060764, -0.00249219, -0.01622531, -169.73536682, 137.56776428, 189.04902649, -0.02334960, 0.01049274, 0.99967229, 0.00543578, -0.01153034, -0.00984991, 0.00000000, 0.00000000, 0.00000000, -0.98808889, 0.15335086, -0.01234230, 0.00339410
424170169.370368, -0.02011108, 0.00065613, 1.00883484, -0.00332149, 0.01165559, -0.00565975, -167.85322571, 137.73886108, 187.88410950, -0.02334426, 0.01062063, 0.99967104, 0.00671218, -0.01245168, -0.00388250, 0.00000000, 0.00000000, 0.00000000, -0.98809610, 0.15330242, -0.01234930, 0.00345830
424170169.386414, -0.01968384, 0.01025391, 0.99043274, 0.01524793, -0.00840387, -0.02442279, -168.53764343, 137.05444336, 189.21545410, -0.02319070, 0.01027165, 0.99967831, 0.00513955, -0.00474797, 0.00192388, 0.00000000, 0.00000000, 0.00000000, -0.98809167, 0.15334275, -0.01224678, 0.00329713
424170169.401738, -0.02291870, 0.01296997, 0.99946594, 0.01620640, -0.02243181, -0.02697489, -167.51101685, 138.42327881, 188.88261414, -0.02322847, 0.01026684, 0.99967748, 0.00055391, 0.00226063, -0.00771884, 0.00000000, 0.00000000, 0.00000000, -0.98808761, 0.15336757, -0.01226516, 0.00329155
424170169.417892, -0.01731873, 0.00503540, 0.99685669, 0.01299330, 0.00103970, -0.00915861, -168.87985229, 138.76548767, 189.88111877, -0.02295303, 0.01041289, 0.99968231, 0.00003433, 0.00255708, -0.00021637, 0.00000000, 0.00000000, 0.00000000, -0.98810523, 0.15326192, -0.01213988, 0.00338614
424170169.433330, -0.01763916, -0.00131226, 0.99482727, 0.01649083, -0.00252414, -0.01616459, -168.87985229, 138.76548767, 189.88111877, -0.02255983, 0.01026206, 0.99969280, 0.00524110, -0.00522666, -0.00283614, 0.00000000, 0.00000000, 0.00000000, -0.98811263, 0.15323137, -0.01193389, 0.00334211
424170169.449728, -0.01763916, -0.00131226, 0.99482727, 0.01293897, -0.00486799, -0.02089649, -169.73536682, 139.62101746, 189.71469116, -0.02231826, 0.00980845, 0.99970281, 0.00689163, -0.01189891, -0.00589787, 0.00000000, 0.00000000, 0.00000000, -0.98811717, 0.15321832, -0.01177970, 0.00313663
424170169.465063, -0.01878357, 0.00459290, 0.99436951, 0.01644342, -0.00724327, -0.02439109, -169.73536682, 137.90997314, 190.38035583, -0.02190027, 0.00902625, 0.99971944, 0.00374231, -0.00885840, -0.00365618, 0.00000000, 0.00000000, 0.00000000, -0.98813274, 0.15314501, -0.01151296, 0.00278300
424170169.480711, -0.02365112, 0.01275635, 0.99645996, 0.00947286, -0.00015819, -0.01736221, -168.87985229, 138.42327881, 191.21244812, -0.02162300, 0.00902253, 0.99972546, 0.00200020, -0.00026399, -0.00256362, 0.00000000, 0.00000000, 0.00000000, -0.98814287, 0.15308953, -0.01137549, 0.00280303
424170169.496919, -0.01885986, 0.00801086, 0.99989319, 0.00360033, 0.00105488, -0.01507536, -168.19543457, 139.10769653, 190.54678345, -0.02162327, 0.00927894, 0.99972314, -0.00202786, 0.00347741, -0.00326317, 0.00000000, 0.00000000, 0.00000000, -0.98815450, 0.15301060, -0.01139503, 0.00293062
424170169.512445, -0.01965332, 0.00071716, 0.99211121, 0.00828909, -0.00134064, -0.02088611, -168.87985229, 137.73886108, 189.88111877, -0.02147466, 0.00935500, 0.99972564, 0.00261479, -0.00134413, 0.00016756, 0.00000000, 0.00000000, 0.00000000, -0.98816306, 0.15295939, -0.01132725, 0.00298017
424170169.527974, -0.01965332, 0.00071716, 0.99211121, 0.01645594, -0.00366265, -0.01152856, -168.19543457, 137.39665222, 189.88111877, -0.02137594, 0.00898807, 0.99973112, 0.00172262, -0.00827091, -0.00761990, 0.00000000, 0.00000000, 0.00000000, -0.98817261, 0.15290663, -0.01125024, 0.00280700
424170169.543938, -0.01478577, 0.00155640, 0.99906921, 0.00722249, 0.00927819, -0.00326157, -168.36653137, 136.88334656, 188.71620178, -0.02132527, 0.00890724, 0.99973291, 0.00046651, -0.00869361, -0.00240320, 0.00000000, 0.00000000, 0.00000000, -0.98817613, 0.15288687, -0.01121896, 0.00277115
424170169.560064, -0.02302551, 0.00761414, 0.99415588, 0.00606322, 0.01165479, 0.00258540, -169.39315796, 138.25218201, 189.71469116, -0.02107343, 0.00864217, 0.99974060, 0.00328169, -0.00385091, -0.00238035, 0.00000000, 0.00000000, 0.00000000, -0.98817996, 0.15287467, -0.01107419, 0.00265956
424170169.575767, -0.01754761, 0.01287842, 0.99493408, 0.01291793, -0.00362909, -0.00923717, -170.76199341, 137.90997314, 190.04753113, -0.02128899, 0.00862387, 0.99973619, -0.00173652, -0.00100974, -0.00558029, 0.00000000, 0.00000000, 0.00000000, -0.98816363, 0.15297298, -0.01117959, 0.00263293
424170169.591678, -0.01660156, 0.00575256, 0.99734497, 0.01527989, -0.00846086, -0.03373479, -170.76199341, 137.90997314, 190.04753113, -0.02120833, 0.00894201, 0.99973512, 0.00366072, 0.00393641, -0.00480101, 0.00000000, 0.00000000, 0.00000000, -0.98816498, 0.15296246, -0.01116404, 0.00279642
424170169.607558, -0.01660156, 0.00575256, 0.99734497, 0.01050244, -0.00950988, -0.01867169, -168.70874023, 139.27880859, 190.38035583, -0.02093595, 0.00904251, 0.99973994, 0.00433439, -0.00328994, -0.00239496, 0.00000000, 0.00000000, 0.00000000, -0.98818181, 0.15286162, -0.01103682, 0.00286804
424170169.623366, -0.01589966, -0.00209045, 0.99877930, 0.00484456, 0.00573192, -0.01265667, -169.56427002, 139.44990540, 190.21394348, -0.02077229, 0.00893513, 0.99974430, 0.00183613, -0.00681416, 0.00059139, 0.00000000, 0.00000000, 0.00000000, -0.98819301, 0.15279639, -0.01094754, 0.00282821
424170169.638864, -0.01898193, 0.00360107, 0.99584961, 0.00710185, -0.00251615, -0.02324567, -168.02432251, 138.25218201, 191.04602051, -0.02062366, 0.00856922, 0.99975061, 0.00110767, -0.00420521, -0.00712058, 0.00000000, 0.00000000, 0.00000000, -0.98819759, 0.15277700, -0.01084607, 0.00265896
424170169.654290, -0.01708984, 0.01359558, 0.99467468, 0.01410490, -0.00605576, -0.02323182, -168.02432251, 138.25218201, 190.38035583, -0.02057160, 0.00849913, 0.99975228, 0.00158967, -0.00489805, -0.00390265, 0.00000000, 0.00000000, 0.00000000, -0.98820838, 0.15270996, -0.01081480, 0.00262904
424170169.670853, -0.01864624, 0.00849915, 0.99613953, 0.00941720, -0.00486320, -0.02326085, -168.02432251, 137.90997314, 188.05053711, -0.02033368, 0.00875368, 0.99975491, 0.00324384, 0.00484190, -0.00508024, 0.00000000, 0.00000000, 0.00000000, -0.98822866, 0.15258302, -0.01071631, 0.00277437
424170169.685974, -0.01864624, 0.00849915, 0.99613953, 0.01294882, -0.00248340, -0.01270914, -168.19543457, 135.68562317, 188.88261414, -0.02020808, 0.00889623, 0.99975622, 0.00156184, -0.00039708, -0.00361669, 0.00000000, 0.00000000, 0.00000000, -0.98823836, 0.15252233, -0.01066494, 0.00285505
424170169.702056, -0.01878357, 0.00459290, 0.99436951, 0.01640161, -0.00957060, -0.02326671, -168.19543457, 137.39665222, 188.88261414, -0.02010508, 0.00888437, 0.99975842, 0.00397654, -0.00287240, -0.00413767, 0.00000000, 0.00000000, 0.00000000, -0.98823141, 0.15257093, -0.01061326, 0.00285653
424170169.718094, -0.01898193, 0.00312805, 0.99334717, 0.01168435, -0.01072615, -0.02566275, -169.05094910, 138.25218201, 191.71170044, -0.01997165, 0.00877520, 0.99976206, 0.00002841, -0.00637957, -0.00240181, 0.00000000, 0.00000000, 0.00000000, -0.98824244, 0.15250542, -0.01053880, 0.00281345
424170169.733718, -0.02015686, 0.00997925, 0.99642944, 0.01763465, -0.00607494, -0.02319533, -170.59088135, 139.44990540, 189.88111877, -0.01983635, 0.00878063, 0.99976468, 0.00085442, -0.00565258, -0.00641751, 0.00000000, 0.00000000, 0.00000000, -0.98825408, 0.15243428, -0.01047215, 0.00282721
424170169.750849, -0.01794434, 0.01017761, 0.99942017, 0.01414059, -0.00131534, -0.01151338, -169.39315796, 138.59439087, 190.71319580, -0.01981009, 0.00882126, 0.99976486, -0.00034677, 0.00115799, -0.00333540, 0.00000000, 0.00000000, 0.00000000, -0.98826822, 0.15234286, -0.01046200, 0.00285026
424170169.765496, -0.01794434, 0.01017761, 0.99942017, 0.01296667, -0.00011292, -0.00685018, -169.39315796, 138.59439087, 190.71319580, -0.01969537, 0.00899306, 0.99976557, 0.00175103, 0.00118455, -0.00034542, 0.00000000, 0.00000000, 0.00000000, -0.98827449, 0.15230340, -0.01041827, 0.00294432
424170169.780921, -0.01814270, 0.00776672, 0.99414062, 0.01065211, 0.00103118, -0.01267452, -170.07757568, 138.25218201, 190.71319580, -0.01971064, 0.00894330, 0.99976575, 0.00138483, -0.00314496, -0.00464854, 0.00000000, 0.00000000, 0.00000000, -0.98827166, 0.15232200, -0.01042208, 0.00291837
424170169.797144, -0.01600647, 0.00181580, 0.99757385, 0.01294483, -0.00247647, -0.01154534, -169.56427002, 136.02783203, 190.21394348, -0.01972045, 0.00883018, 0.99976653, 0.00076903, -0.00693809, -0.00643463, 0.00000000, 0.00000000, 0.00000000, -0.98826671, 0.15235542, -0.01041841, 0.00286136
424170169.812734, -0.01858521, 0.00628662, 0.99563599, 0.00821079, -0.00720571, -0.02564038, -167.68211365, 137.90997314, 188.71620178, -0.01963594, 0.00872935, 0.99976909, 0.00362947, -0.00691355, -0.00219523, 0.00000000, 0.00000000, 0.00000000, -0.98826693, 0.15235818, -0.01036897, 0.00281794
424170169.829174, -0.01916504, 0.01022339, 0.99591064, 0.01766049, -0.00371884, -0.01966398, -167.68211365, 137.22555542, 188.05053711, -0.01951915, 0.00867408, 0.99977183, 0.00093395, -0.00238746, -0.00413587, 0.00000000, 0.00000000, 0.00000000, -0.98827702, 0.15229725, -0.01030686, 0.00280016
424170169.844581, -0.01712036, 0.00602722, 0.99389648, 0.01055491, -0.00600090, -0.01744850, -168.19543457, 136.71224976, 189.88111877, -0.01951142, 0.00875745, 0.99977130, 0.00034638, 0.00146593, -0.00386063, 0.00000000, 0.00000000, 0.00000000, -0.98828155, 0.15226692, -0.01030930, 0.00284227
424170169.861164, -0.01712036, 0.00602722, 0.99389648, 0.01286653, -0.00834102, -0.01629961, -168.53764343, 138.08106995, 190.21394348, -0.01942087, 0.00888160, 0.99977195, 0.00027109, 0.00010583, -0.00512778, 0.00000000, 0.00000000, 0.00000000, -0.98829347, 0.15219061, -0.01027378, 0.00291131
424170169.875809, -0.01699829, 0.00257874, 0.99760437, 0.00598039, 0.00219524, -0.01735955, -170.07757568, 139.27880859, 189.71469116, -0.01934503, 0.00878608, 0.99977428, 0.00007318, -0.00396430, -0.00314645, 0.00000000, 0.00000000, 0.00000000, -0.98829461, 0.15218704, -0.01022901, 0.00286991
424170169.891884, -0.01925659, 0.00386047, 0.99584961, 0.01636965, -0.00951334, -0.01395496, -171.61750793, 139.44990540, 189.21545410, -0.01925709, 0.00860919, 0.99977750, -0.00045727, -0.00546588, -0.00566739, 0.00000000, 0.00000000, 0.00000000, -0.98830681, 0.15211309, -0.01017187, 0.00278994
424170169.907420, -0.01783752, 0.00602722, 0.99938965, 0.01520718, -0.01193442, -0.02913791, -171.61750793, 139.44990540, 189.21545410, -0.01920297, 0.00863165, 0.99977833, -0.00005362, -0.00477117, -0.00392874, 0.00000000, 0.00000000, 0.00000000, -0.98830994, 0.15209420, -0.01014678, 0.00280535
424170169.923889, -0.01937866, 0.00778198, 0.99539185, 0.01649775, -0.00133504, -0.01265294, -170.24867249, 138.42327881, 190.21394348, -0.01911668, 0.00870865, 0.99977934, 0.00127915, -0.00268143, -0.00038968, 0.00000000, 0.00000000, 0.00000000, -0.98832534, 0.15199571, -0.01010970, 0.00285098
424170169.939087, -0.01937866, 0.00778198, 0.99539185, 0.01762001, -0.00724966, -0.02437884, -169.05094910, 138.93659973, 188.71620178, -0.01915444, 0.00877830, 0.99977797, 0.00006570, -0.00151512, -0.00189897, 0.00000000, 0.00000000, 0.00000000, -0.98833191, 0.15195074, -0.01013353, 0.00288299
424170169.954542, -0.01856995, 0.00555420, 0.99586487, 0.01530306, -0.00369886, -0.01852442, -168.19543457, 137.39665222, 189.21545410, -0.01907092, 0.00884849, 0.99977899, 0.00024157, -0.00230247, -0.00365471, 0.00000000, 0.00000000, 0.00000000, -0.98834347, 0.15187716, -0.01009737, 0.00292478
424170169.970596, -0.01753235, 0.00309753, 0.99285889, 0.01057488, -0.00603659, -0.02326830, -167.16880798, 138.08106995, 188.54977417, -0.01905328, 0.00877563, 0.99977994, 0.00347406, -0.00547973, -0.00618865, 0.00000000, 0.00000000, 0.00000000, -0.98834601, 0.15186227, -0.01008307, 0.00289026
424170169.986773, -0.01860046, 0.00677490, 0.99612427, 0.00598226, 0.00459422, -0.00684459, -167.68211365, 137.90997314, 188.38336182, -0.01897224, 0.00877696, 0.99978149, 0.00143989, -0.00567943, -0.00692260, 0.00000000, 0.00000000, 0.00000000, -0.98835441, 0.15181008, -0.01004296, 0.00289760
424170170.003212, -0.02110291, 0.00880432, 0.99615479, 0.01528601, -0.00246769, -0.00802890, -169.05094910, 138.59439087, 190.71319580, -0.01901180, 0.00866584, 0.99978173, 0.00041134, -0.00189093, -0.00365744, 0.00000000, 0.00000000, 0.00000000, -0.98835817, 0.15178597, -0.01005401, 0.00283992
424170170.018482, -0.02110291, 0.00880432, 0.99615479, 0.01764051, -0.00368315, -0.01384418, -168.36653137, 138.59439087, 190.71319580, -0.01901074, 0.00873038, 0.99978119, -0.00081043, -0.00119253, -0.00364164, 0.00000000, 0.00000000, 0.00000000, -0.98836270, 0.15175560, -0.01005830, 0.00287221
424170170.033786, -0.01863098, 0.00801086, 0.99565125, 0.01177330, -0.00367969, -0.01856090, -170.41978455, 138.93659973, 189.38186646, -0.01901765, 0.00884806, 0.99978000, 0.00015779, -0.00108134, -0.00089389, 0.00000000, 0.00000000, 0.00000000, -0.98836523, 0.15173718, -0.01007059, 0.00293004
424170170.050224, -0.01678467, 0.00331116, 0.99682617, 0.01534220, -0.00256782, -0.02432425, -169.05094910, 137.22555542, 192.37736511, -0.01894209, 0.00891548, 0.99978083, 0.00156233, -0.00215583, -0.00565547, 0.00000000, 0.00000000, 0.00000000, -0.98837572, 0.15167022, -0.01003816, 0.00296977
424170170.065449, -0.01997375, 0.00360107, 0.99761963, 0.01295788, -0.00370046, -0.02087679, -169.05094910, 137.22555542, 192.37736511, -0.01884934, 0.00894684, 0.99978232, 0.00206467, -0.00563568, -0.00295613, 0.00000000, 0.00000000, 0.00000000, -0.98838409, 0.15161809, -0.00999453, 0.00299283
424170170.081196, -0.02139282, 0.01000977, 0.99417114, 0.01407401, -0.00720172, -0.01975959, -167.51101685, 137.39665222, 191.21244812, -0.01885624, 0.00880710, 0.99978340, -0.00111751, -0.00520603, -0.00216379, 0.00000000, 0.00000000, 0.00000000, -0.98839096, 0.15157510, -0.00998722, 0.00292368
424170170.097302, -0.02139282, 0.01000977, 0.99417114, 0.02000274, -0.00491327, -0.02198706, -168.53764343, 138.08106995, 190.21394348, -0.01884235, 0.00888185, 0.99978304, -0.00346600, -0.00055055, -0.00635955, 0.00000000, 0.00000000, 0.00000000, -0.98840073, 0.15151072, -0.00998583, 0.00296232
424170170.112831, -0.02093506, 0.01100159, 0.99493408, 0.01526231, -0.00722968, -0.02323928, -168.70874023, 136.54113770, 189.38186646, -0.01887046, 0.00900570, 0.99978137, -0.00220193, -0.00143734, -0.00463367, 0.00000000, 0.00000000, 0.00000000, -0.98841342, 0.15142526, -0.01000885, 0.00302228
424170170.128901, -0.02093506, 0.00268555, 0.99511719, 0.01648284, -0.00250976, -0.01383672, -166.31327820, 135.51451111, 188.71620178, -0.01885180, 0.00918274, 0.99978012, -0.00122877, -0.00166016, -0.00212997, 0.00000000, 0.00000000, 0.00000000, -0.98842434, 0.15135186, -0.01001280, 0.00311194
424170170.144451, -0.01876831, 0.00410461, 0.99461365, 0.01763066, -0.00606775, -0.02203127, -168.19543457, 136.37004089, 190.54678345, -0.01886045, 0.00916441, 0.99978012, -0.00207461, -0.00647886, -0.00466294, 0.00000000, 0.00000000, 0.00000000, -0.98843233, 0.15129968, -0.01001553, 0.00310275
424170170.160131, -0.02217102, 0.00416565, 0.99688721, 0.00826619, -0.00250097, -0.01974175, -169.90646362, 137.39665222, 190.87960815, -0.01879204, 0.00916037, 0.99978143, 0.00002373, -0.00505576, -0.00516780, 0.00000000, 0.00000000, 0.00000000, -0.98843843, 0.15126203, -0.00998129, 0.00310631
424170170.175987, -0.02217102, 0.00416565, 0.99688721, 0.01761468, -0.00603925, -0.01737553, -169.73536682, 139.62101746, 191.37886047, -0.01878105, 0.00916199, 0.99978167, -0.00097908, -0.00430970, -0.00489334, 0.00000000, 0.00000000, 0.00000000, -0.98844689, 0.15120705, -0.00997580, 0.00310850
424170170.191818, -0.01983643, 0.00804138, 0.99591064, 0.01403246, -0.00952906, -0.01863520, -170.07757568, 139.27880859, 191.71170044, -0.01879360, 0.00917331, 0.99978131, -0.00134800, 0.00008877, -0.00411480, 0.00000000, 0.00000000, 0.00000000, -0.98845624, 0.15114535, -0.00998267, 0.00311377
424170170.207990, -0.01713562, 0.00650024, 0.99513245, 0.02115269, -0.00607227, -0.01966691, -169.90646362, 137.05444336, 190.54678345, -0.01868731, 0.00923474, 0.99978274, 0.00159747, -0.00371106, -0.00391786, 0.00000000, 0.00000000, 0.00000000, -0.98846556, 0.15108673, -0.00993458, 0.00315275
424170170.224109, -0.01628113, 0.00306702, 0.99607849, 0.01073067, 0.00689626, -0.00792024, -169.90646362, 137.05444336, 190.54678345, -0.01864969, 0.00932859, 0.99978256, 0.00151407, -0.00282835, -0.00465011, 0.00000000, 0.00000000, 0.00000000, -0.98847107, 0.15105038, -0.00992296, 0.00320235
424170170.239107, -0.01931763, 0.00556946, 0.99487305, 0.01061057, -0.00129616, -0.01154986, -170.07757568, 138.93659973, 191.04602051, -0.01867978, 0.00921672, 0.99978304, 0.00239865, -0.00614971, -0.00370454, 0.00000000, 0.00000000, 0.00000000, -0.98847630, 0.15101698, -0.00992928, 0.00314511
424170170.254708, -0.01931763, 0.00556946, 0.99487305, 0.01061003, -0.00489809, -0.02790434, -169.39315796, 137.22555542, 191.37886047, -0.01869727, 0.00908914, 0.99978387, -0.00062036, -0.00351968, -0.00491083, 0.00000000, 0.00000000, 0.00000000, -0.98847749, 0.15101054, -0.00992827, 0.00308080
424170170.271270, -0.01835632, 0.00750732, 0.99638367, 0.01181245, -0.00254865, -0.02436073, -166.48439026, 136.37004089, 189.21545410, -0.01864185, 0.00912582, 0.99978459, -0.00137768, -0.00378525, -0.00265323, 0.00000000, 0.00000000, 0.00000000, -0.98849030, 0.15092785, -0.00990338, 0.00310394
424170170.287172, -0.01641846, 0.00770569, 0.99787903, 0.01525033, -0.00720811, -0.01974734, -168.02432251, 136.54113770, 188.71620178, -0.01863768, 0.00911595, 0.99978477, -0.00193116, -0.00203587, -0.00514058, 0.00000000, 0.00000000, 0.00000000, -0.98850614, 0.15082435, -0.00990025, 0.00310041
424170170.302721, -0.01614380, 0.00601196, 0.99362183, 0.01769830, -0.00138431, -0.01962457, -167.85322571, 137.39665222, 190.87960815, -0.01859569, 0.00913519, 0.99978536, 0.00217724, -0.00142950, -0.00190632, 0.00000000, 0.00000000, 0.00000000, -0.98850901, 0.15080656, -0.00988089, 0.00311327
424170170.319264, -0.01736450, 0.00604248, 0.99389648, 0.01072668, 0.00690345, -0.00675644, -169.73536682, 138.93659973, 189.38186646, -0.01855156, 0.00919614, 0.99978560, 0.00240777, -0.00318418, -0.00616379, 0.00000000, 0.00000000, 0.00000000, -0.98851735, 0.15075231, -0.00986350, 0.00314726
424170170.334101, -0.01736450, 0.00604248, 0.99389648, 0.01524793, -0.00840387, -0.02442279, -170.24867249, 139.79211426, 191.54527283, -0.01854488, 0.00916502, 0.99978602, 0.00118038, -0.00312254, -0.00588954, 0.00000000, 0.00000000, 0.00000000, -0.98851460, 0.15077099, -0.00985791, 0.00313220
424170170.350323, -0.01831055, 0.00532532, 0.99362183, 0.00005300, -0.00129589, -0.02097106, -170.07757568, 140.30543518, 190.71319580, -0.01854280, 0.00914975, 0.99978620, -0.00043914, -0.00602170, -0.00444013, 0.00000000, 0.00000000, 0.00000000, -0.98851927, 0.15074066, -0.00985563, 0.00312511
424170170.365959, -0.02035522, 0.00852966, 0.99690247, 0.01646393, -0.00367676, -0.01385643, -170.07757568, 140.30543518, 190.71319580, -0.01855342, 0.00903220, 0.99978709, -0.00253423, -0.00118918, -0.00811837, 0.00000000, 0.00000000, 0.00000000, -0.98853294, 0.15065246, -0.00985174, 0.00306708
424170170.381426, -0.01838684, 0.00776672, 0.99339294, 0.00815300, -0.00950456, -0.01985999, -170.07757568, 137.56776428, 190.71319580, -0.01859888, 0.00911051, 0.99978554, -0.00175635, -0.00058085, -0.00288305, 0.00000000, 0.00000000, 0.00000000, -0.98853800, 0.15061664, -0.00988000, 0.00310273
424170170.397479, -0.02024841, 0.00436401, 0.99664307, 0.01170992, -0.00837032, -0.02213140, -168.53764343, 137.39665222, 190.21394348, -0.01849224, 0.00914926, 0.99978715, 0.00010540, -0.00138254, -0.00639420, 0.00000000, 0.00000000, 0.00000000, -0.98854824, 0.15055212, -0.00983000, 0.00313055
424170170.412971, -0.02024841, 0.00436401, 0.99664307, 0.01170326, -0.00955915, -0.02564305, -167.68211365, 135.51451111, 190.71319580, -0.01843926, 0.00905026, 0.99978900, -0.00180915, -0.00468624, -0.00314595, 0.00000000, 0.00000000, 0.00000000, -0.98855581, 0.15050553, -0.00979621, 0.00308606
424170170.428968, -0.01710510, 0.00576782, 0.99536133, 0.00717855, 0.00094995, -0.02900662, -168.19543457, 137.39665222, 190.54678345, -0.01830021, 0.00904109, 0.99979168, 0.00175968, -0.00550105, -0.00220255, 0.00000000, 0.00000000, 0.00000000, -0.98856952, 0.15041985, -0.00972651, 0.00309284
424170170.444621, -0.01983643, 0.00706482, 0.99440002, 0.01302818, 0.00217873, -0.01379464, -167.51101685, 138.42327881, 189.88111877, -0.01824533, 0.00900364, 0.99979299, 0.00017892, -0.00320530, -0.00342459, 0.00000000, 0.00000000, 0.00000000, -0.98858695, 0.15030752, -0.00969621, 0.00307955
424170170.460516, -0.01901245, 0.00457764, 0.99662781, 0.01054559, -0.00838523, -0.02563559, -167.85322571, 137.73886108, 192.21093750, -0.01831285, 0.00904592, 0.99979138, -0.00152357, -0.00198110, -0.00539136, 0.00000000, 0.00000000, 0.00000000, -0.98859150, 0.15027488, -0.00973267, 0.00309570
424170170.476198, -0.01712036, 0.00672913, 0.99664307, 0.01756115, -0.00834502, -0.01275894, -170.93309021, 139.79211426, 192.87660217, -0.01825800, 0.00906567, 0.99979222, -0.00075445, -0.00448803, -0.00316440, 0.00000000, 0.00000000, 0.00000000, -0.98860294, 0.15020100, -0.00970680, 0.00311031
424170170.491620, -0.01712036, 0.00672913, 0.99664307, 0.01527909, -0.00365625, -0.01154054, -169.05094910, 139.62101746, 192.04452515, -0.01822708, 0.00910216, 0.99979246, 0.00110672, -0.00237304, -0.00314937, 0.00000000, 0.00000000, 0.00000000, -0.98860208, 0.15020704, -0.00969428, 0.00313061
424170170.508299, -0.01873779, 0.00337219, 0.99609375, 0.01065744, -0.00017870, -0.01967783, -170.24867249, 139.44990540, 190.87960815, -0.01820455, 0.00922006, 0.99979174, 0.00076375, 0.00024039, -0.00339284, 0.00000000, 0.00000000, 0.00000000, -0.98860091, 0.15021360, -0.00969201, 0.00319052
424170170.524262, -0.02159119, 0.00881958, 0.99491882, 0.01528015, -0.00485947, -0.01738006, -170.24867249, 139.44990540, 190.87960815, -0.01822024, 0.00922923, 0.99979138, -0.00158567, -0.00291209, -0.00514724, 0.00000000, 0.00000000, 0.00000000, -0.98860456, 0.15018897, -0.00970038, 0.00319412
424170170.539467, -0.01609802, 0.00526428, 0.99684143, 0.00946993, -0.00135395, -0.02203766, -168.53764343, 137.73886108, 189.54827881, -0.01824937, 0.00926524, 0.99979055, -0.00334181, -0.00044566, -0.00487171, 0.00000000, 0.00000000, 0.00000000, -0.98861216, 0.15013750, -0.00971732, 0.00321024
424170170.555013, -0.01876831, 0.00410461, 0.99461365, 0.00939031, -0.00601581, -0.02095269, -167.68211365, 136.54113770, 192.04452515, -0.01812580, 0.00925573, 0.99979287, 0.00202778, -0.00399144, -0.00295144, 0.00000000, 0.00000000, 0.00000000, -0.98862575, 0.15005185, -0.00965524, 0.00321565
424170170.571612, -0.01707458, 0.00503540, 0.99610901, 0.01071283, 0.00452604, -0.01377946, -167.68211365, 138.59439087, 190.04753113, -0.01812194, 0.00916377, 0.99979377, -0.00064638, -0.00505916, -0.00518014, 0.00000000, 0.00000000, 0.00000000, -0.98863341, 0.15000291, -0.00964627, 0.00317096
424170170.587211, -0.01707458, 0.00503540, 0.99610901, 0.01180153, -0.00372976, -0.02670831, -167.51101685, 136.71224976, 191.87811279, -0.01814315, 0.00921648, 0.99979293, -0.00143388, -0.00169389, -0.00290571, 0.00000000, 0.00000000, 0.00000000, -0.98864096, 0.14995170, -0.00966054, 0.00319593
424170170.602663, -0.01863098, 0.00726318, 0.99263000, 0.01655527, 0.00096353, -0.01843387, -167.33990479, 138.25218201, 191.37886047, -0.01808651, 0.00923363, 0.99979377, -0.00030034, -0.00146691, -0.00714852, 0.00000000, 0.00000000, 0.00000000, -0.98865179, 0.14988172, -0.00963360, 0.00320934
424170170.619347, -0.01988220, 0.00900269, 0.99291992, 0.01171258, -0.00717482, -0.01745596, -169.39315796, 137.90997314, 192.71018982, -0.01813823, 0.00930234, 0.99979222, -0.00145405, -0.00176450, -0.00539219, 0.00000000, 0.00000000, 0.00000000, -0.98866191, 0.14981234, -0.00966410, 0.00324011
424170170.634194, -0.01690674, 0.00701904, 0.99136353, 0.01641652, -0.00839588, -0.02208293, -168.36653137, 137.56776428, 191.37886047, -0.01813475, 0.00937045, 0.99979162, -0.00174745, -0.00036777, -0.00687172, 0.00000000, 0.00000000, 0.00000000, -0.98867002, 0.14975787, -0.00966730, 0.00327457
424170170.651552, -0.02000427, 0.00485229, 0.99563599, 0.01173842, -0.00481872, -0.01392460, -170.07757568, 136.88334656, 193.04302979, -0.01806301, 0.00951309, 0.99979162, 0.00115628, -0.00249405, -0.00842807, 0.00000000, 0.00000000, 0.00000000, -0.98867646, 0.14971527, -0.00964237, 0.00335088
424170170.665861, -0.02000427, 0.00485229, 0.99563599, 0.01879712, -0.00365359, -0.00801212, -168.53764343, 138.76548767, 192.54377747, -0.01807321, 0.00953762, 0.99979115, -0.00344168, -0.00294583, -0.00038627, 0.00000000, 0.00000000, 0.00000000, -0.98868099, 0.14968466, -0.00964915, 0.00336254
424170170.681823, -0.01927185, 0.00459290, 0.99610901, 0.01296587, -0.00371484, -0.02320466, -168.53764343, 138.76548767, 192.54377747, -0.01818901, 0.00947006, 0.99978971, -0.00178474, -0.00632675, -0.00667143, 0.00000000, 0.00000000, 0.00000000, -0.98867601, 0.14971507, -0.00970145, 0.00332018
424170170.697411, -0.01710510, 0.00601196, 0.99862671, 0.01421995, 0.00334653, -0.01259862, -168.70874023, 135.85671997, 191.04602051, -0.01812639, 0.00938906, 0.99979162, -0.00009260, -0.00728335, -0.00044775, 0.00000000, 0.00000000, 0.00000000, -0.98869181, 0.14961387, -0.00966408, 0.00328581
424170170.713288, -0.02073669, 0.00439453, 0.99638367, 0.01418346, -0.00019068, -0.01847754, -168.36653137, 136.54113770, 191.04602051, -0.01806355, 0.00946078, 0.99979210, 0.00095844, -0.00344882, -0.00116537, 0.00000000, 0.00000000, 0.00000000, -0.98870341, 0.14953799, -0.00963812, 0.00332671
424170170.729567, -0.01934814, 0.00679016, 0.99488831, 0.01635314, -0.01308624, -0.02565370, -168.36653137, 137.56776428, 191.04602051, -0.01813864, 0.00943815, 0.99979091, -0.00259805, -0.00504361, -0.00340727, 0.00000000, 0.00000000, 0.00000000, -0.98870586, 0.14951984, -0.00967350, 0.00331008
424170170.744826, -0.01934814, 0.00679016, 0.99488831, 0.01176931, -0.00367277, -0.01739683, -169.90646362, 139.10769653, 190.54678345, -0.01806511, 0.00947087, 0.99979198, 0.00195183, -0.00397770, -0.00295052, 0.00000000, 0.00000000, 0.00000000, -0.98871300, 0.14947433, -0.00963943, 0.00333220
424170170.760859, -0.01724243, 0.00186157, 0.99407959, 0.00953625, 0.00453243, -0.01379171, -169.39315796, 138.59439087, 191.04602051, -0.01808645, 0.00940221, 0.99979222, -0.00118540, -0.00480931, -0.00417149, 0.00000000, 0.00000000, 0.00000000, -0.98872045, 0.14942550, -0.00964469, 0.00329713
424170170.776470, -0.01982117, 0.00704956, 0.99714661, 0.01525991, -0.00842518, -0.02791472, -169.73536682, 138.93659973, 190.38035583, -0.01809423, 0.00933724, 0.99979270, 0.00123327, -0.00331002, -0.00368368, 0.00000000, 0.00000000, 0.00000000, -0.98872648, 0.14938639, -0.00964355, 0.00326481
424170170.792959, -0.01979065, 0.00558472, 0.99438477, 0.01183402, -0.00018509, -0.01966558, -169.73536682, 139.27880859, 190.04753113, -0.01806401, 0.00946975, 0.99979198, -0.00175716, -0.00242019, -0.00264538, 0.00000000, 0.00000000, 0.00000000, -0.98873870, 0.14930428, -0.00963823, 0.00333339
424170170.808053, -0.01911926, 0.00851440, 0.99565125, 0.00246955, 0.00338142, -0.01737633, -168.19543457, 136.71224976, 189.54827881, -0.01807012, 0.00948423, 0.99979174, -0.00172053, -0.00389951, -0.00540697, 0.00000000, 0.00000000, 0.00000000, -0.98874793, 0.14924274, -0.00964213, 0.00334069
424170170.824478, -0.01911926, 0.00851440, 0.99565125, 0.01529107, -0.00367756, -0.01503221, -167.85322571, 137.73886108, 190.21394348, -0.01804959, 0.00944679, 0.99979246, -0.00004734, -0.00293129, -0.00292052, 0.00000000, 0.00000000, 0.00000000, -0.98875496, 0.14919736, -0.00962903, 0.00332415
424170170.839857, -0.01838684, 0.00801086, 0.99391174, 0.01875638, -0.00718414, -0.01272698, -167.85322571, 137.73886108, 190.21394348, -0.01806847, 0.00949199, 0.99979168, -0.00054725, -0.00198467, -0.00415571, 0.00000000, 0.00000000, 0.00000000, -0.98876206, 0.14914902, -0.00964158, 0.00334556
424170170.855124, -0.01861572, 0.00653076, 0.99438477, 0.01890445, 0.00095794, -0.01724530, -167.68211365, 137.22555542, 189.38186646, -0.01806011, 0.00952890, 0.99979150, -0.00369893, -0.00389841, -0.00641381, 0.00000000, 0.00000000, 0.00000000, -0.98876305, 0.14914217, -0.00964017, 0.00336450
424170170.871290, -0.01890564, 0.00971985, 0.99690247, 0.01411981, -0.00488157, -0.02204804, -168.53764343, 137.39665222, 190.21394348, -0.01809105, 0.00963489, 0.99978989, -0.00052467, -0.00310412, -0.00540515, 0.00000000, 0.00000000, 0.00000000, -0.98876577, 0.14912147, -0.00966331, 0.00341480
424170170.886858, -0.02026367, 0.00509644, 0.99763489, 0.01876037, -0.00719133, -0.01389105, -168.87985229, 137.39665222, 189.88111877, -0.01806299, 0.00970726, 0.99978971, -0.00084265, 0.00001258, -0.00288726, 0.00000000, 0.00000000, 0.00000000, -0.98877631, 0.14905125, -0.00965458, 0.00345336
424170170.903247, -0.02026367, 0.00509644, 0.99763489, 0.01293098, -0.00485361, -0.01856862, -169.56427002, 138.42327881, 190.21394348, -0.01802189, 0.00985674, 0.99978900, -0.00106686, -0.00306658, -0.00689960, 0.00000000, 0.00000000, 0.00000000, -0.98877754, 0.14904187, -0.00964537, 0.00353043
424170170.919000, -0.01757812, 0.00503540, 0.99685669, 0.00609757, 0.00919190, -0.01840537, -168.19543457, 138.42327881, 191.54527283, -0.01798853, 0.00986583, 0.99978954, -0.00036779, -0.00333507, -0.00589303, 0.00000000, 0.00000000, 0.00000000, -0.98878740, 0.14897731, -0.00962932, 0.00353803
424170170.934470, -0.01780701, 0.00431824, 0.99411011, 0.01415364, -0.00253986, -0.02084483, -169.05094910, 138.93659973, 189.71469116, -0.01810812, 0.00980983, 0.99978793, -0.00535990, -0.00388942, -0.00738679, 0.00000000, 0.00000000, 0.00000000, -0.98879795, 0.14890458, -0.00968403, 0.00350215
424170170.950744, -0.01783752, 0.00604248, 0.99612427, 0.00948751, 0.00101600, -0.01617870, -168.70874023, 139.27880859, 189.38186646, -0.01812543, 0.00973923, 0.99978828, 0.00031842, -0.00542099, -0.00567818, 0.00000000, 0.00000000, 0.00000000, -0.98880438, 0.14886250, -0.00968718, 0.00346637
424170170.965941, -0.01876831, 0.00434875, 0.99636841, 0.01764158, -0.00488637, -0.01968369, -169.22206116, 137.39665222, 189.54827881, -0.01819765, 0.00970771, 0.99978727, 0.00036012, -0.00366523, -0.00366301, 0.00000000, 0.00000000, 0.00000000, -0.98881038, 0.14882095, -0.00972040, 0.00344581
424170170.982621, -0.01876831, 0.00434875, 0.99636841, 0.01525698, -0.00962120, -0.03259017, -168.70874023, 137.90997314, 189.04902649, -0.01819851, 0.00969133, 0.99978745, -0.00056980, -0.00534257, -0.00341902, 0.00000000, 0.00000000, 0.00000000, -0.98881322, 0.14880231, -0.00971954, 0.00343783
424170170.998280, -0.01588440, 0.00624084, 0.99536133, 0.00942413, -0.00367410, -0.01974920, -168.70874023, 137.90997314, 189.04902649, -0.01812214, 0.00977760, 0.99978799, -0.00121074, -0.00324684, -0.00190894, 0.00000000, 0.00000000, 0.00000000, -0.98882897, 0.14869856, -0.00968783, 0.00348719
424170171.012831, -0.01858521, 0.00604248, 0.99838257, 0.00943212, -0.00368848, -0.02207707, -167.16880798, 137.73886108, 189.54827881, -0.01803424, 0.00975093, 0.99978983, -0.00212262, -0.00024471, -0.00537454, 0.00000000, 0.00000000, 0.00000000, -0.98884411, 0.14860092, -0.00964204, 0.00348149
424170171.030058, -0.01856995, 0.00532532, 0.99536133, 0.01418053, -0.00138671, -0.02315299, -168.70874023, 136.88334656, 189.38186646, -0.01795484, 0.00974842, 0.99979126, -0.00063036, -0.00370594, -0.00140871, 0.00000000, 0.00000000, 0.00000000, -0.98885915, 0.14850326, -0.00960224, 0.00348710
424170171.044948, -0.01951599, 0.00436401, 0.99438477, 0.00949550, 0.00100188, -0.01850684, -168.87985229, 138.76548767, 189.88111877, -0.01798626, 0.00972266, 0.99979097, -0.00058368, -0.00439734, -0.00442963, 0.00000000, 0.00000000, 0.00000000, -0.98886465, 0.14846612, -0.00961574, 0.00347238
424170171.061434, -0.01951599, 0.00436401, 0.99438477, 0.01527216, -0.00484509, -0.01505192, -169.22206116, 137.39665222, 189.54827881, -0.01805959, 0.00972688, 0.99978960, -0.00145640, -0.00536286, -0.00540483, 0.00000000, 0.00000000, 0.00000000, -0.98886833, 0.14843930, -0.00965222, 0.00346929
424170171.076636, -0.01715088, 0.00700378, 0.99389648, 0.02229812, -0.00722489, -0.01618243, -169.39315796, 138.25218201, 190.04753113, -0.01809162, 0.00981989, 0.99978811, -0.00296551, -0.00273981, -0.00213796, 0.00000000, 0.00000000, 0.00000000, -0.98887022, 0.14842419, -0.00967491, 0.00351305
424170171.093090, -0.02000427, 0.00483704, 0.99787903, 0.01408573, -0.00241842, -0.00105754, -170.76199341, 137.56776428, 190.38035583, -0.01800303, 0.00990074, 0.99978894, 0.00059275, -0.00214927, -0.00439707, 0.00000000, 0.00000000, 0.00000000, -0.98887548, 0.14839048, -0.00963698, 0.00355994
424170171.108248, -0.02073669, 0.00463867, 0.99588013, 0.01645141, -0.00725738, -0.02671896, -169.39315796, 137.90997314, 191.37886047, -0.01799558, 0.00989191, 0.99978912, -0.00200869, -0.00505488, -0.00191010, 0.00000000, 0.00000000, 0.00000000, -0.98887468, 0.14839622, -0.00963267, 0.00355607
424170171.124776, -0.01664734, 0.00650024, 0.99436951, 0.00838230, 0.00569837, -0.01494806, -168.53764343, 137.05444336, 189.21545410, -0.01807823, 0.00986540, 0.99978793, -0.00265846, -0.00522673, -0.00390778, 0.00000000, 0.00000000, 0.00000000, -0.98888032, 0.14835657, -0.00967143, 0.00353721
424170171.139980, -0.01664734, 0.00650024, 0.99436951, 0.01997477, -0.00486320, -0.01383938, -168.53764343, 137.05444336, 189.21545410, -0.01813747, 0.00976609, 0.99978781, 0.00149013, -0.00326585, -0.00541830, 0.00000000, 0.00000000, 0.00000000, -0.98888891, 0.14829908, -0.00969315, 0.00348427
424170171.155371, -0.02059937, 0.00854492, 0.99465942, 0.01997477, -0.00486320, -0.01383938, -168.87985229, 136.71224976, 189.54827881, -0.01815910, 0.00986315, 0.99978644, 0.00076408, -0.00259997, -0.00740060, 0.00000000, 0.00000000, 0.00000000, -0.98888892, 0.14829679, -0.00971104, 0.00353069
424170171.171559, -0.01962280, 0.00827026, 0.99392700, 0.01182364, 0.00223492, -0.00565895, -168.53764343, 138.08106995, 188.21694946, -0.01818953, 0.00990850, 0.99978548, 0.00007735, -0.00287419, -0.00390533, 0.00000000, 0.00000000, 0.00000000, -0.98888321, 0.14833318, -0.00972959, 0.00355050
424170171.187532, -0.01739502, 0.00749207, 0.99462891, 0.00945289, -0.00012251, -0.01154241, -167.68211365, 136.54113770, 190.04753113, -0.01819243, 0.01000527, 0.99978447, -0.00143037, -0.00173501, -0.00585744, 0.00000000, 0.00000000, 0.00000000, -0.98888475, 0.14832117, -0.00973815, 0.00359826
424170171.203797, -0.01930237, 0.00579834, 0.99685669, 0.01996492, -0.00724779, -0.02202647, -170.93309021, 139.10769653, 189.88111877, -0.01818641, 0.00997000, 0.99978489, 0.00079139, -0.00247794, -0.00515600, 0.00000000, 0.00000000, 0.00000000, -0.98888845, 0.14829726, -0.00973248, 0.00358150
424170171.221304, -0.01831055, 0.00506592, 0.99287415, 0.00253293, 0.00807204, -0.01380556, -169.90646362, 137.73886108, 191.21244812, -0.01814264, 0.01002695, 0.99978513, -0.00115973, -0.00422861, -0.00292844, 0.00000000, 0.00000000, 0.00000000, -0.98889128, 0.14827882, -0.00971499, 0.00361308
424170171.234168, -0.01831055, 0.00506592, 0.99287415, 0.01649882, -0.00253826, -0.01849272, -168.87985229, 139.44990540, 189.88111877, -0.01822205, 0.01000459, 0.99978393, -0.00188904, -0.00174958, -0.00187436, 0.00000000, 0.00000000, 0.00000000, -0.98889810, 0.14823127, -0.00975242, 0.00359661
424170171.251088, -0.01701355, 0.00306702, 0.99760437, 0.01997078, -0.00485601, -0.01267532, -169.05094910, 138.25218201, 190.71319580, -0.01825659, 0.00997453, 0.99978358, -0.00055750, -0.00391679, -0.00190455, 0.00000000, 0.00000000, 0.00000000, -0.98889840, 0.14822866, -0.00976727, 0.00357921
424170171.266289, -0.01663208, 0.00625610, 0.99436951, 0.00938098, -0.00840041, -0.02913978, -168.36653137, 137.56776428, 190.38035583, -0.01820867, 0.01003563, 0.99978381, 0.00119512, -0.00696862, -0.00217947, 0.00000000, 0.00000000, 0.00000000, -0.98889981, 0.14821975, -0.00974807, 0.00361307
424170171.281992, -0.01856995, 0.00532532, 0.99511719, 0.01885891, -0.00136194, -0.01495631, -168.70874023, 137.56776428, 189.04902649, -0.01811060, 0.01000677, 0.99978590, 0.00147852, -0.00375067, -0.00541641, 0.00000000, 0.00000000, 0.00000000, -0.98891312, 0.14813437, -0.00969712, 0.00360690
424170171.299118, -0.02099609, 0.00439453, 0.99412537, 0.00717402, 0.00576175, -0.00564856, -167.85322571, 136.02783203, 190.21394348, -0.01813737, 0.00998899, 0.99978560, -0.00043257, -0.00466367, -0.00466842, 0.00000000, 0.00000000, 0.00000000, -0.98891897, 0.14809481, -0.00970890, 0.00359651
424170171.313531, -0.02099609, 0.00439453, 0.99412537, 0.00843929, 0.01280182, 0.00146527, -167.85322571, 136.02783203, 190.21394348, -0.01819434, 0.01002239, 0.99978423, -0.00057397, -0.00568889, -0.00242401, 0.00000000, 0.00000000, 0.00000000, -0.98891713, 0.14810481, -0.00973958, 0.00360871
424170171.329931, -0.01908875, 0.00680542, 0.99238586, 0.01294483, -0.00247647, -0.01154534, -168.02432251, 137.56776428, 190.04753113, -0.01833740, 0.00991341, 0.99978268, -0.00098022, -0.00434395, -0.00466552, 0.00000000, 0.00000000, 0.00000000, -0.98891164, 0.14813887, -0.00980238, 0.00354389
424170171.345514, -0.01983643, 0.00706482, 0.99314880, 0.01646633, -0.00608266, -0.02553545, -169.39315796, 138.93659973, 189.38186646, -0.01835012, 0.00987980, 0.99978280, 0.00216055, -0.00144169, -0.00065256, 0.00000000, 0.00000000, 0.00000000, -0.98890971, 0.14815193, -0.00980623, 0.00352620
424170171.362527, -0.02038574, 0.00901794, 0.99316406, 0.01290009, -0.00599930, -0.01509613, -170.24867249, 138.76548767, 190.21394348, -0.01833635, 0.00998853, 0.99978197, -0.00150008, -0.00292371, -0.00663318, 0.00000000, 0.00000000, 0.00000000, -0.98891401, 0.14812179, -0.00980737, 0.00358128
424170171.377422, -0.01779175, 0.00430298, 0.99736023, 0.01879126, -0.00604538, -0.01736328, -171.27529907, 138.08106995, 191.87811279, -0.01832559, 0.01003965, 0.99978167, -0.00206015, -0.00102170, -0.00661760, 0.00000000, 0.00000000, 0.00000000, -0.98892575, 0.14804286, -0.00980554, 0.00360814
424170171.393094, -0.01779175, 0.00430298, 0.99736023, 0.00942706, -0.00247860, -0.01507349, -169.73536682, 138.59439087, 192.04452515, -0.01826741, 0.01011347, 0.99978197, -0.00106548, -0.00381159, -0.00539722, 0.00000000, 0.00000000, 0.00000000, -0.98893493, 0.14798209, -0.00978201, 0.00364956
424170171.408598, -0.02015686, 0.00950623, 0.99340820, 0.01291340, -0.00722409, -0.02442758, -169.05094910, 137.56776428, 189.04902649, -0.01824677, 0.01007797, 0.99978274, -0.00303924, -0.00350143, -0.00213258, 0.00000000, 0.00000000, 0.00000000, -0.98894470, 0.14791801, -0.00976894, 0.00363416
424170171.425035, -0.01960754, 0.00779724, 0.99516296, 0.01530599, -0.00250337, -0.01384870, -168.19543457, 136.71224976, 189.21545410, -0.01826430, 0.01009264, 0.99978226, 0.00042677, -0.00430956, -0.00490921, 0.00000000, 0.00000000, 0.00000000, -0.98895041, 0.14787908, -0.00977855, 0.00364050
424170171.440004, -0.01930237, 0.00556946, 0.99610901, 0.01536644, 0.00099123, -0.01495365, -166.99769592, 136.19892883, 188.71620178, -0.01825353, 0.01014903, 0.99978191, -0.00135401, -0.00235179, -0.00461892, 0.00000000, 0.00000000, 0.00000000, -0.98895251, 0.14786434, -0.00977734, 0.00366933
424170171.455810, -0.01834106, 0.00605774, 0.99537659, 0.02117959, -0.00491966, -0.02197507, -166.99769592, 136.19892883, 188.71620178, -0.01825112, 0.01012662, 0.99978215, -0.00105124, -0.00455716, -0.00367314, 0.00000000, 0.00000000, 0.00000000, -0.98896344, 0.14779171, -0.00977423, 0.00365914
424170171.472168, -0.01834106, 0.00605774, 0.99537659, 0.01407694, -0.00600569, -0.01508388, -168.36653137, 136.88334656, 189.04902649, -0.01822673, 0.01023073, 0.99978155, -0.00016011, -0.00246401, -0.00513737, 0.00000000, 0.00000000, 0.00000000, -0.98896909, 0.14775284, -0.00976971, 0.00371282
424170171.487770, -0.01812744, 0.00726318, 0.99513245, 0.00833836, 0.00577693, -0.00214491, -168.36653137, 138.25218201, 190.71319580, -0.01822260, 0.01017812, 0.99978215, -0.00274298, -0.00579885, 0.00033992, 0.00000000, 0.00000000, 0.00000000, -0.98897881, 0.14768882, -0.00976354, 0.00368774
424170171.503343, -0.02053833, 0.00656128, 0.99739075, 0.01177037, -0.00487598, -0.02323635, -169.39315796, 138.25218201, 191.04602051, -0.01824951, 0.01018918, 0.99978155, -0.00132752, -0.00338376, -0.00586980, 0.00000000, 0.00000000, 0.00000000, -0.98898265, 0.14766206, -0.00977757, 0.00369148
424170171.519285, -0.01982117, 0.00656128, 0.99539185, 0.01293497, -0.00486080, -0.01973243, -170.59088135, 139.44990540, 191.21244812, -0.01827167, 0.01027838, 0.99978024, -0.00226666, -0.00371710, -0.00238948, 0.00000000, 0.00000000, 0.00000000, -0.98898723, 0.14762918, -0.00979500, 0.00373429
424170171.535329, -0.02047729, 0.00389099, 0.99461365, 0.01169394, -0.00834182, -0.01747566, -170.07757568, 138.93659973, 191.04602051, -0.01828004, 0.01035441, 0.99977928, -0.00154112, -0.00379314, -0.00438744, 0.00000000, 0.00000000, 0.00000000, -0.98899834, 0.14755312, -0.00980446, 0.00377203
424170171.553122, -0.02047729, 0.00389099, 0.99461365, 0.01297013, -0.00372203, -0.02436846, -169.22206116, 138.08106995, 190.54678345, -0.01821326, 0.01036703, 0.99978036, 0.00058936, -0.00409567, -0.00565501, 0.00000000, 0.00000000, 0.00000000, -0.98900719, 0.14749566, -0.00977214, 0.00378376
424170171.566508, -0.01858521, 0.00627136, 0.99687195, 0.00936341, -0.00716896, -0.01864452, -168.70874023, 138.59439087, 189.04902649, -0.01824399, 0.01023622, 0.99978119, -0.00079898, -0.00443788, -0.00266508, 0.00000000, 0.00000000, 0.00000000, -0.98902457, 0.14738041, -0.00977726, 0.00371794
424170171.582289, -0.02026367, 0.00462341, 0.99513245, 0.01182044, -0.00256276, -0.02668860, -167.85322571, 137.73886108, 189.54827881, -0.01820499, 0.01019477, 0.99978232, -0.00083797, -0.00462531, -0.00391743, 0.00000000, 0.00000000, 0.00000000, -0.98903390, 0.14731967, -0.00975469, 0.00370091
424170171.598390, -0.01763916, 0.00651550, 0.99462891, 0.01536378, -0.00020426, -0.01962910, -167.85322571, 136.71224976, 188.54977417, -0.01821663, 0.01017250, 0.99978232, -0.00204704, -0.00554909, -0.00464987, 0.00000000, 0.00000000, 0.00000000, -0.98904017, 0.14727765, -0.00975864, 0.00368946
424170171.613767, -0.02027893, 0.00559998, 0.99638367, 0.01538029, 0.00336863, -0.00793063, -167.85322571, 136.71224976, 188.54977417, -0.01821920, 0.01007006, 0.99978328, 0.00058004, -0.00355456, -0.00515440, 0.00000000, 0.00000000, 0.00000000, -0.98904802, 0.14722659, -0.00975218, 0.00363911
424170171.629861, -0.02027893, 0.00559998, 0.99638367, 0.01645700, -0.00486586, -0.01736807, -168.02432251, 138.59439087, 190.38035583, -0.01819937, 0.01014170, 0.99978292, 0.00057547, -0.00364146, -0.00214805, 0.00000000, 0.00000000, 0.00000000, -0.98905186, 0.14720014, -0.00974755, 0.00367626
424170171.645722, -0.01737976, 0.00700378, 0.99664307, 0.01648390, -0.00371245, -0.01967623, -169.90646362, 136.71224976, 189.88111877, -0.01820249, 0.01015106, 0.99978280, 0.00015134, -0.00484100, -0.00216316, 0.00000000, 0.00000000, 0.00000000, -0.98905812, 0.14715783, -0.00974962, 0.00368107
424170171.661582, -0.01837158, 0.00703430, 0.99488831, 0.01058473, -0.00365199, -0.01508095, -168.70874023, 139.27880859, 191.04602051, -0.01813691, 0.01022194, 0.99978328, 0.00074189, -0.00247048, -0.00413201, 0.00000000, 0.00000000, 0.00000000, -0.98906268, 0.14712796, -0.00972229, 0.00372125
424170171.677118, -0.01690674, 0.00700378, 0.99487305, 0.01527509, -0.00364906, -0.01037647, -169.73536682, 138.59439087, 190.71319580, -0.01807653, 0.01027971, 0.99978375, -0.00029506, -0.00324541, -0.00489545, 0.00000000, 0.00000000, 0.00000000, -0.98907044, 0.14707667, -0.00969648, 0.00375477
424170171.693188, -0.01783752, 0.00579834, 0.99136353, 0.01525033, -0.00720811, -0.01974734, -168.87985229, 138.42327881, 190.54678345, -0.01798230, 0.01031828, 0.99978507, 0.00107557, -0.00331449, -0.00491202, 0.00000000, 0.00000000, 0.00000000, -0.98907077, 0.14707664, -0.00965271, 0.00378077
424170171.708730, -0.01783752, 0.00579834, 0.99136353, 0.01648683, -0.00251695, -0.01500052, -169.56427002, 136.02783203, 191.21244812, -0.01793410, 0.01033150, 0.99978578, 0.00009657, -0.00453316, -0.00842227, 0.00000000, 0.00000000, 0.00000000, -0.98907818, 0.14702806, -0.00962965, 0.00379133
424170171.725628, -0.01957703, 0.00680542, 0.99490356, 0.01522369, -0.00836099, -0.01743918, -166.48439026, 136.37004089, 188.88261414, -0.01793561, 0.01034839, 0.99978560, -0.00139728, -0.00355823, -0.00414960, 0.00000000, 0.00000000, 0.00000000, -0.98908390, 0.14698924, -0.00963149, 0.00379995
424170171.740296, -0.01976013, 0.00436401, 0.99537659, 0.01295282, -0.00249059, -0.01387321, -167.51101685, 137.05444336, 190.21394348, -0.01785172, 0.01033534, 0.99978721, 0.00172318, -0.00481166, -0.00767602, 0.00000000, 0.00000000, 0.00000000, -0.98909379, 0.14692543, -0.00958880, 0.00380028
424170171.756139, -0.02223206, 0.00614929, 0.99641418, 0.01413366, -0.00250417, -0.01502476, -168.36653137, 136.19892883, 189.38186646, -0.01789099, 0.01025822, 0.99978733, -0.00186915, -0.00589421, -0.00441073, 0.00000000, 0.00000000, 0.00000000, -0.98909278, 0.14693238, -0.00960258, 0.00375918
424170171.771767, -0.02175903, 0.00563049, 0.99488831, 0.00835647, 0.00334253, -0.01847967, -168.36653137, 136.19892883, 189.38186646, -0.01797748, 0.01033961, 0.99978495, -0.00425457, -0.00419032, -0.00337074, 0.00000000, 0.00000000, 0.00000000, -0.98909707, 0.14689944, -0.00965122, 0.00379341
424170171.787953, -0.02175903, 0.00563049, 0.99488831, 0.02110422, -0.00958871, -0.02205390, -169.39315796, 137.90997314, 188.38336182, -0.01803018, 0.01025769, 0.99978483, -0.00372885, -0.00462719, -0.00489652, 0.00000000, 0.00000000, 0.00000000, -0.98910464, 0.14684832, -0.00967107, 0.00374951
424170171.803619, -0.02201843, 0.00660706, 0.99589539, 0.01281620, -0.01425617, -0.02920183, -170.07757568, 137.90997314, 190.71319580, -0.01798073, 0.01036029, 0.99978465, -0.00034508, -0.00407367, -0.00414867, 0.00000000, 0.00000000, 0.00000000, -0.98910677, 0.14683367, -0.00965409, 0.00380404
424170171.819774, -0.01617432, 0.00770569, 0.99787903, 0.01645780, -0.00126367, -0.00101360, -170.93309021, 137.39665222, 190.87960815, -0.01787733, 0.01033325, 0.99978679, 0.00180982, -0.00679321, -0.00520366, 0.00000000, 0.00000000, 0.00000000, -0.98912094, 0.14674180, -0.00960060, 0.00379915
424170171.835166, -0.02076721, 0.00561523, 0.99612427, 0.00361231, 0.00103357, -0.01856756, -170.76199341, 137.56776428, 190.04753113, -0.01780785, 0.01043815, 0.99978691, 0.00163353, -0.00273246, -0.00190791, 0.00000000, 0.00000000, 0.00000000, -0.98912176, 0.14673656, -0.00957391, 0.00385618
424170171.851455, -0.01931763, 0.00628662, 0.99787903, 0.01759045, -0.00959830, -0.02674613, -168.19543457, 137.05444336, 190.21394348, -0.01781666, 0.01032633, 0.99978793, -0.00295056, -0.00471109, -0.00366368, 0.00000000, 0.00000000, 0.00000000, -0.98914008, 0.14661474, -0.00956959, 0.00380140
424170171.866768, -0.01931763, 0.00628662, 0.99787903, 0.01294989, -0.00368608, -0.01854892, -167.51101685, 137.73886108, 188.21694946, -0.01783076, 0.01031920, 0.99978775, -0.00148687, -0.00403258, -0.00190874, 0.00000000, 0.00000000, 0.00000000, -0.98915207, 0.14653353, -0.00957574, 0.00379763
424170171.882517, -0.01934814, 0.00704956, 0.99588013, 0.01062761, -0.00252787, -0.02204511, -166.82659912, 136.71224976, 189.54827881, -0.01780708, 0.01039344, 0.99978739, -0.00296014, -0.00526649, -0.00489911, 0.00000000, 0.00000000, 0.00000000, -0.98915915, 0.14648511, -0.00956928, 0.00383656
424170171.898154, -0.01881409, 0.00630188, 0.99638367, 0.00008442, 0.00345146, -0.00808882, -168.19543457, 138.08106995, 189.21545410, -0.01780958, 0.01031606, 0.99978817, -0.00219470, -0.00572316, -0.00291623, 0.00000000, 0.00000000, 0.00000000, -0.98917595, 0.14637293, -0.00956441, 0.00379918
424170171.914483, -0.01684570, 0.00505066, 0.99185181, 0.01998383, -0.00608026, -0.02200677, -168.87985229, 137.73886108, 189.54827881, -0.01785824, 0.01022512, 0.99978822, -0.00095585, -0.00392324, -0.00340458, 0.00000000, 0.00000000, 0.00000000, -0.98918068, 0.14634102, -0.00958171, 0.00375095
424170171.930113, -0.02085876, 0.00878906, 0.99890137, 0.01417947, -0.00018376, -0.01731348, -168.87985229, 137.73886108, 189.54827881, -0.01779986, 0.01027254, 0.99978882, 0.00095416, -0.00522188, -0.00793699, 0.00000000, 0.00000000, 0.00000000, -0.98919020, 0.14627764, -0.00955606, 0.00377929
424170171.945978, -0.02085876, 0.00878906, 0.99890137, 0.00939723, -0.00482751, -0.01744104, -170.59088135, 137.05444336, 190.87960815, -0.01787538, 0.01029945, 0.99978715, -0.00298338, -0.00151039, -0.00088581, 0.00000000, 0.00000000, 0.00000000, -0.98919910, 0.14621467, -0.00959514, 0.00378769
424170171.962403, -0.02085876, 0.00856018, 0.99441528, 0.01180819, -0.00254145, -0.02319693, -168.87985229, 139.10769653, 190.87960815, -0.01786833, 0.01028473, 0.99978745, -0.00216646, -0.00447113, -0.00065720, 0.00000000, 0.00000000, 0.00000000, -0.98921162, 0.14613040, -0.00959025, 0.00378174
424170171.977282, -0.01907349, 0.00653076, 0.99687195, 0.00831758, 0.00221122, -0.01267931, -170.93309021, 137.73886108, 191.21244812, -0.01787915, 0.01030038, 0.99978709, -0.00122486, -0.00325082, -0.00589061, 0.00000000, 0.00000000, 0.00000000, -0.98922358, 0.14604884, -0.00959644, 0.00378948
424170171.993547, -0.01889038, 0.00827026, 0.99116516, 0.02232368, -0.00847045, -0.02900582, -169.56427002, 136.71224976, 190.54678345, -0.01788729, 0.01028698, 0.99978709, -0.00118620, -0.00375622, -0.00291514, 0.00000000, 0.00000000, 0.00000000, -0.98922700, 0.14602561, -0.00959940, 0.00378248
424170172.008929, -0.64727783, -0.56417847, 0.92979431, 0.02830541, -0.04105449, -1.53438559, -168.87985229, 137.39665222, 189.88111877, -0.01785945, 0.01043284, 0.99978608, -0.00103093, -0.00216257, -0.00862091, 0.00000000, 0.00000000, 0.00000000, -0.98923660, 0.14595888, -0.00959602, 0.00385731
424170172.025812, -0.20057678, -0.59114075, 0.95840454, -0.01969940, 0.02696957, -2.28794593, -166.31327820, 137.22555542, 190.04753113, -0.01764517, 0.01054604, 0.99978870, -0.62963265, -0.57472450, -0.06999438, 0.00000000, 0.00000000, 0.00000000, -0.99016466, 0.13952884, -0.00947255, 0.00399058
424170172.040556, -0.20057678, -0.59114075, 0.95840454, -0.00860228, 0.01969195, -2.13199148, -165.97106934, 136.54113770, 189.38186646, -0.01843274, 0.00953131, 0.99978465, -0.31327808, -0.65357429, 0.01565722, 0.00000000, 0.00000000, 0.00000000, -0.99237616, 0.12280833, -0.00973242, 0.00359786
424170172.056442, 0.07853699, 0.09530640, 1.02098083, 0.02001738, -0.00457904, -1.68516764, -166.99769592, 136.54113770, 189.71469116, -0.01903277, 0.00880781, 0.99978006, -0.04271955, -0.21516767, 0.00911581, 0.00000000, 0.00000000, 0.00000000, -0.99436211, 0.10551794, -0.00992851, 0.00337530
424170172.072358, 0.12547302, 0.24739075, 0.97351074, 0.02588193, 0.00231509, -1.31604127, -166.99769592, 136.54113770, 189.71469116, -0.01917926, 0.00855921, 0.99977940, 0.09771625, 0.08674718, 0.02120141, 0.00000000, 0.00000000, 0.00000000, -0.99578600, 0.09110407, -0.00994021, 0.00338829
424170172.088108, 0.08682251, 0.42884827, 1.01864624, -0.04310033, 0.01240421, -1.06403033, -169.39315796, 136.54113770, 189.38186646, -0.01952437, 0.00839054, 0.99977416, 0.14499739, 0.23900020, -0.02626343, 0.00000000, 0.00000000, 0.00000000, -0.99674523, 0.07991260, -0.01006680, 0.00340188
424170172.105090, 0.08200073, 0.50505066, 0.94837952, -0.05394313, 0.03813087, -0.87516507, -169.39315796, 136.54113770, 191.04602051, -0.01976902, 0.00770834, 0.99977487, 0.10659153, 0.42113993, 0.01887138, 0.00000000, 0.00000000, 0.00000000, -0.99741507, 0.07106766, -0.01013401, 0.00314209
424170172.119943, 0.08200073, 0.50505066, 0.94837952, 0.02742923, -0.01610014, -0.50859905, -168.87985229, 137.39665222, 189.88111877, -0.02033521, 0.00665813, 0.99977106, 0.11970044, 0.52489704, 0.02288825, 0.00000000, 0.00000000, 0.00000000, -0.99791323, 0.06367661, -0.01035956, 0.00267498
424170172.135425, 0.25283813, 0.05172729, 1.00163269, 0.02222781, -0.00469755, 0.01528335, -167.51101685, 138.76548767, 191.54527283, -0.02042942, 0.00652341, 0.99976999, 0.18482761, 0.31993839, -0.01312146, 0.00000000, 0.00000000, 0.00000000, -0.99822213, 0.05863093, -0.01038898, 0.00265731
424170172.151721, -0.00860596, 0.00827026, 0.99908447, -0.01392327, 0.01173442, -0.00227754, -166.65548706, 135.17230225, 191.04602051, -0.02036542, 0.00674276, 0.99976987, -0.03647357, 0.00497599, 0.01135379, 0.00000000, 0.00000000, 0.00000000, -0.99826667, 0.05786697, -0.01036134, 0.00277661
424170172.167041, -0.01593018, -0.01013184, 0.99423218, -0.00696070, 0.00466426, -0.00697855, -166.65548706, 136.54113770, 189.71469116, -0.02051167, 0.00662896, 0.99976766, 0.01190571, 0.00164130, -0.00068316, 0.00000000, 0.00000000, 0.00000000, -0.99826079, 0.05795880, -0.01043131, 0.00271461
424170172.182868, -0.01890564, -0.00053406, 0.98982239, 0.02358309, 0.00098244, -0.00904889, -167.68211365, 135.51451111, 190.71319580, -0.02060334, 0.00638959, 0.99976730, 0.00467316, -0.01652143, -0.00553513, 0.00000000, 0.00000000, 0.00000000, -0.99825664, 0.05802868, -0.01047032, 0.00259174
424170172.198611, -0.01890564, -0.00053406, 0.98982239, 0.03270442, -0.02016492, -0.02327336, -166.82659912, 135.34341431, 188.54977417, -0.02069921, 0.00650915, 0.99976456, -0.00174646, -0.02015050, -0.01101029, 0.00000000, 0.00000000, 0.00000000, -0.99825296, 0.05808023, -0.01052179, 0.00264809
424170172.214189, -0.02084351, 0.01829529, 1.00097656, 0.00699959, -0.00833782, -0.02101634, -168.19543457, 138.42327881, 189.54827881, -0.02062156, 0.00689150, 0.99976361, 0.00025108, 0.00284361, 0.00141133, 0.00000000, 0.00000000, 0.00000000, -0.99825124, 0.05810560, -0.01049421, 0.00284094
424170172.232053, -0.01879883, 0.01315308, 0.99317932, -0.00340379, 0.00579770, -0.00925022, -169.73536682, 137.56776428, 189.04902649, -0.02041647, 0.00699557, 0.99976707, -0.00036600, 0.00910245, 0.00268958, 0.00000000, 0.00000000, 0.00000000, -0.99825658, 0.05802876, -0.01039462, 0.00289966
424170172.246055, -0.01950073, -0.00465393, 0.99107361, 0.01876836, -0.00720571, -0.01621892, -169.73536682, 137.56776428, 189.04902649, -0.02043173, 0.00691806, 0.99976730, 0.00163290, 0.00623502, -0.00658799, 0.00000000, 0.00000000, 0.00000000, -0.99825866, 0.05799399, -0.01039989, 0.00286088
424170172.263355, -0.01678467, -0.00549316, 0.99902344, 0.01771774, 0.00338435, -0.00325065, -169.39315796, 137.90997314, 190.38035583, -0.02045152, 0.00694742, 0.99976671, 0.00095079, -0.01160135, -0.00869310, 0.00000000, 0.00000000, 0.00000000, -0.99825750, 0.05801136, -0.01041067, 0.00287478
424170172.277515, -0.01678467, -0.00549316, 0.99902344, 0.01065904, 0.00222001, -0.00916314, -169.22206116, 138.42327881, 192.54377747, -0.02048850, 0.00720618, 0.99976414, 0.00280356, -0.01536963, -0.00251070, 0.00000000, 0.00000000, 0.00000000, -0.99825619, 0.05802279, -0.01043668, 0.00300276
424170172.293658, -0.02346802, 0.00639343, 0.99641418, 0.01056077, -0.00360912, -0.00809734, -167.33990479, 137.22555542, 190.71319580, -0.02058828, 0.00720703, 0.99976206, 0.00101125, -0.00800049, 0.00057363, 0.00000000, 0.00000000, 0.00000000, -0.99825266, 0.05807461, -0.01048667, 0.00299975
424170172.309609, -0.02163696, 0.01078796, 0.99192810, 0.01995160, -0.00962520, -0.02904976, -167.33990479, 135.17230225, 190.71319580, -0.02068243, 0.00710927, 0.99976081, -0.00415888, 0.00398387, -0.00853462, 0.00000000, 0.00000000, 0.00000000, -0.99824826, 0.05814475, -0.01053104, 0.00294748
424170172.325428, -0.01971436, 0.00337219, 0.99761963, 0.02347363, -0.00962999, -0.02668514, -167.51101685, 136.37004089, 191.21244812, -0.02056693, 0.00720530, 0.99976254, -0.00107004, 0.00358267, -0.00783441, 0.00000000, 0.00000000, 0.00000000, -0.99825701, 0.05800166, -0.01047574, 0.00300027
424170172.340629, -0.01506042, -0.00575256, 0.99900818, 0.00353828, -0.00483870, -0.02448537, -166.31327820, 136.19892883, 189.04902649, -0.02042634, 0.00735282, 0.99976432, 0.00071198, -0.00398063, -0.00214469, 0.00000000, 0.00000000, 0.00000000, -0.99826420, 0.05788559, -0.01040948, 0.00307920
424170172.356141, -0.01506042, -0.00575256, 0.99900818, 0.00371351, 0.00805846, -0.01495711, -166.82659912, 137.05444336, 189.88111877, -0.02028782, 0.00717124, 0.99976844, 0.00194675, -0.00944480, -0.00396463, 0.00000000, 0.00000000, 0.00000000, -0.99827216, 0.05776615, -0.01033470, 0.00299380
424170172.372707, -0.01914978, -0.00006104, 0.99307251, 0.00955675, 0.00809814, -0.00325705, -167.68211365, 137.56776428, 191.71170044, -0.02023433, 0.00648375, 0.99977422, 0.00103877, -0.01264830, -0.00249031, 0.00000000, 0.00000000, 0.00000000, -0.99827732, 0.05770193, -0.01028796, 0.00265281
424170172.388610, -0.02334595, 0.01054382, 0.99844360, 0.01291740, -0.00723101, -0.02559165, -167.68211365, 137.56776428, 191.71170044, -0.02037208, 0.00633578, 0.99977237, -0.00211937, -0.00069003, -0.00563177, 0.00000000, 0.00000000, 0.00000000, -0.99827391, 0.05775290, -0.01035259, 0.00257444
424170172.403953, -0.02198792, 0.00585938, 0.99862671, 0.00351804, -0.00480274, -0.01866583, -168.02432251, 137.22555542, 191.37886047, -0.02037869, 0.00659673, 0.99977058, -0.00296725, 0.00394710, -0.00132697, 0.00000000, 0.00000000, 0.00000000, -0.99827830, 0.05766898, -0.01036321, 0.00270539
424170172.419911, -0.01730347, -0.00546265, 0.99526978, 0.01074825, 0.00926647, -0.00206129, -170.24867249, 137.05444336, 190.21394348, -0.02045106, 0.00668157, 0.99976856, -0.00153685, -0.00082219, -0.00114182, 0.00000000, 0.00000000, 0.00000000, -0.99828192, 0.05759748, -0.01040159, 0.00274640
424170172.435665, -0.01730347, -0.00546265, 0.99526978, 0.01067501, 0.00219152, -0.01381888, -169.05094910, 138.25218201, 192.04452515, -0.02050570, 0.00667884, 0.99976742, -0.00169584, -0.00225379, -0.00661862, 0.00000000, 0.00000000, 0.00000000, -0.99828118, 0.05760547, -0.01042881, 0.00274338
424170172.452023, -0.01733398, -0.00398254, 0.99429321, 0.00594817, -0.00134942, -0.02440201, -166.82659912, 136.37004089, 191.54527283, -0.02036047, 0.00622331, 0.99977332, 0.00385046, -0.01290666, -0.00801308, 0.00000000, 0.00000000, 0.00000000, -0.99828357, 0.05758983, -0.01034313, 0.00252032
424170172.467188, -0.02153015, 0.00732422, 0.99714661, 0.00481180, 0.00218752, -0.01969967, -165.97106934, 137.22555542, 190.04753113, -0.02030505, 0.00591310, 0.99977636, 0.00141467, -0.00573000, -0.00371311, 0.00000000, 0.00000000, 0.00000000, -0.99828692, 0.05754481, -0.01030642, 0.00236753
424170172.483006, -0.02384949, 0.01081848, 0.99269104, 0.00129669, 0.00338088, -0.01855265, -167.51101685, 136.02783203, 188.88261414, -0.02033774, 0.00597451, 0.99977529, -0.00119242, 0.00134971, -0.00262871, 0.00000000, 0.00000000, 0.00000000, -0.99829006, 0.05748584, -0.01032436, 0.00239785
424170172.499044, -0.02168274, 0.00413513, 1.00312805, 0.01526018, -0.00482378, -0.01156025, -167.16880798, 137.05444336, 189.54827881, -0.02059203, 0.00604847, 0.99976969, -0.00325746, 0.00477001, -0.00707863, 0.00000000, 0.00000000, 0.00000000, -0.99828754, 0.05750495, -0.01045350, 0.00242727
424170172.514440, -0.02168274, 0.00413513, 1.00312805, -0.01402234, 0.00230337, -0.01756648, -168.53764343, 136.71224976, 190.21394348, -0.02061797, 0.00622405, 0.99976808, -0.00106477, -0.00208892, 0.00336000, 0.00000000, 0.00000000, 0.00000000, -0.99828863, 0.05747910, -0.01047143, 0.00251444
424170172.531112, -0.01542664, -0.00209045, 0.99253845, -0.01621838, 0.01764744, 0.00827204, -168.53764343, 137.73886108, 190.54678345, -0.02057634, 0.00593603, 0.99977064, 0.00089250, -0.00329626, -0.00039627, 0.00000000, 0.00000000, 0.00000000, -0.99829183, 0.05743472, -0.01044226, 0.00237232
424170172.546283, -0.01856995, -0.00418091, 0.98579407, -0.01163881, 0.00824089, 0.00117951, -168.53764343, 137.73886108, 190.54678345, -0.02052235, 0.00524772, 0.99977565, 0.00813221, -0.01008476, -0.00001976, 0.00000000, 0.00000000, 0.00000000, -0.99828817, 0.05751999, -0.01039570, 0.00202937
424170172.563345, 0.01292419, -0.00981140, 1.00381470, -0.01107449, 0.04926715, 0.02980344, -168.70874023, 137.90997314, 191.04602051, -0.02070413, 0.00472793, 0.99977446, 0.00213419, -0.00890884, -0.01398040, 0.00000000, 0.00000000, 0.00000000, -0.99827727, 0.05770374, -0.01047182, 0.00176274
424170172.577650, 0.05445862, -0.05278015, 0.99871826, 0.01835104, 0.01875638, 0.22047778, -169.05094910, 138.93659973, 190.38035583, -0.02072412, 0.00409626, 0.99977684, 0.03364831, -0.01390766, 0.00403786, 0.00000000, 0.00000000, 0.00000000, -0.99826489, 0.05792782, -0.01046389, 0.00144449
424170172.593845, 0.05445862, -0.05278015, 0.99871826, 0.02841167, 0.01964161, 0.37422953, -167.85322571, 136.37004089, 190.87960815, -0.02124560, 0.00417987, 0.99976557, 0.07570422, -0.05696002, -0.00104729, 0.00000000, 0.00000000, 0.00000000, -0.99818226, 0.05928706, -0.01072865, 0.00145651
424170172.609694, -0.18682861, 0.00964355, 0.94744873, 0.34495899, -0.01094639, 0.23619309, -165.62886047, 136.54113770, 190.71319580, -0.02144985, 0.00454476, 0.99975961, 0.03873806, -0.02227547, -0.00029365, 0.00000000, 0.00000000, 0.00000000, -0.99802380, 0.06187317, -0.01084563, 0.00160450
424170172.625735, -0.11213684, 0.00433350, 1.08283997, 0.14503362, -0.04127181, 0.06134592, -166.82659912, 135.34341431, 190.21394348, -0.02144241, 0.00761616, 0.99974108, -0.06786728, 0.03977764, -0.11523485, 0.00000000, 0.00000000, 0.00000000, -0.99787656, 0.06413200, -0.01094408, 0.00311283
424170172.640935, -0.05545044, 0.16142273, 1.06727600, 0.30831789, -0.35275513, 0.04504657, -166.14218140, 135.34341431, 191.21244812, -0.02122991, 0.01515825, 0.99965972, -0.09090693, -0.01082475, 0.08318026, 0.00000000, 0.00000000, 0.00000000, -0.99778858, 0.06517515, -0.01108734, 0.00687170
424170172.656295, -0.00085449, 0.10836792, 1.00559998, 0.30831789, -0.35275513, 0.04504657, -167.16880798, 136.71224976, 190.21394348, -0.01718291, 0.01833939, 0.99968415, -0.03826753, 0.14308333, 0.06759185, 0.00000000, 0.00000000, 0.00000000, -0.99776448, 0.06563628, -0.00917556, 0.00858664
424170172.672950, -0.00085449, 0.10836792, 1.00559998, 0.35409283, -0.11408849, 0.17520830, -169.90646362, 136.02783203, 190.54678345, -0.01460586, 0.02505094, 0.99957949, 0.01375136, 0.08331698, 0.00602050, 0.00000000, 0.00000000, 0.00000000, -0.99769808, 0.06624405, -0.00811756, 0.01201539
424170172.688642, 0.00000000, 0.08206177, 0.96966553, 0.23103881, -0.36653139, 0.20462585, -169.90646362, 136.02783203, 190.54678345, -0.01276834, 0.03130176, 0.99942845, 0.02668435, 0.15615247, -0.03249422, 0.00000000, 0.00000000, 0.00000000, -0.99757587, 0.06750260, -0.00742729, 0.01518633
424170172.704291, 0.00248718, 0.13523865, 0.99604797, 0.18227820, -0.10710968, 0.20844828, -169.56427002, 135.68562317, 191.21244812, -0.00823688, 0.03548718, 0.99933618, -0.00780011, 0.01849842, -0.01155848, 0.00000000, 0.00000000, 0.00000000, -0.99744299, 0.06910548, -0.00533586, 0.01741939
424170172.721567, 0.05613708, 0.10786438, 1.00726318, 0.24137534, 0.56860407, 0.24013271, -170.76199341, 137.22555542, 190.04753113, -0.00436790, 0.03844691, 0.99925113, 0.00685508, 0.09679174, -0.00320312, 0.00000000, 0.00000000, 0.00000000, -0.99730562, 0.07076044, -0.00353965, 0.01902425
424170172.735871, 0.09034729, 0.09794617, 0.84265137, 0.24169545, 0.02634053, 0.32419299, -168.87985229, 136.02783203, 190.87960815, -0.00968900, 0.04180596, 0.99907875, 0.06582609, 0.06605842, 0.00818442, 0.00000000, 0.00000000, 0.00000000, -0.99712445, 0.07267887, -0.00635270, 0.02050022
424170172.752991, 0.05625916, 0.10414124, 1.01695251, 0.33307943, -0.56078210, 0.40729027, -168.53764343, 135.34341431, 190.54678345, -0.01512006, 0.04524273, 0.99886161, 0.10546735, 0.05270343, -0.15621023, 0.00000000, 0.00000000, 0.00000000, -0.99688680, 0.07514982, -0.00924175, 0.02199533
424170172.767432, 0.05625916, 0.10414124, 1.01695251, 0.48416002, -0.73990125, 0.45592306, -168.02432251, 133.80346680, 191.04602051, -0.00723985, 0.05046464, 0.99869961, 0.05792954, 0.06254195, 0.10550267, 0.00000000, 0.00000000, 0.00000000, -0.99661425, 0.07816551, -0.00558359, 0.02488011
424170172.783075, 0.09411621, 0.10383606, 1.07615662, 0.38451359, -0.55925904, 0.51143798, -167.85322571, 134.31678772, 189.54827881, 0.00374334, 0.05743805, 0.99834204, 0.06957515, 0.06020722, 0.04058312, 0.00000000, 0.00000000, 0.00000000, -0.99624995, 0.08159085, -0.00047896, 0.02878790
424170172.799400, 0.07223511, 0.08125305, 1.22442627, 0.26905837, 0.38116866, 0.53640965, -167.68211365, 134.48788452, 188.38336182, 0.01504421, 0.06429107, 0.99781775, 0.07907200, 0.03954499, 0.07833883, 0.00000000, 0.00000000, 0.00000000, -0.99579898, 0.08540074, 0.00475044, 0.03268855
424170172.814796, 0.05291748, 0.10855103, 1.30070496, 0.44560677, 1.11337844, 0.55862467, -170.24867249, 136.02783203, 190.21394348, 0.01480892, 0.06822422, 0.99756008, 0.05742619, 0.01302883, 0.22686617, 0.00000000, 0.00000000, 0.00000000, -0.99535312, 0.08973419, 0.00431429, 0.03466031
424170172.831150, -0.05262756, 0.09881592, 1.24479675, -0.04743569, 0.67590469, 0.54035512, -169.22206116, 136.71224976, 190.87960815, 0.00122292, 0.07456832, 0.99721515, 0.05169456, 0.03398270, 0.30348980, 0.00000000, 0.00000000, 0.00000000, -0.99483684, 0.09437820, -0.00291457, 0.03720117
424170172.846591, -0.05262756, 0.09881592, 1.24479675, -0.42793084, -0.45476671, 0.45698486, -169.22206116, 136.71224976, 190.87960815, -0.01303960, 0.07685002, 0.99695742, 0.00531866, 0.00032894, 0.34053650, 0.00000000, 0.00000000, 0.00000000, -0.99431360, 0.09909167, -0.01030600, 0.03761768
424170172.862881, -0.03526306, 0.11886597, 1.34225464, -0.63076411, -0.33575857, 0.45801897, -169.73536682, 135.85671997, 191.04602051, -0.01046689, 0.07170231, 0.99737114, -0.04336612, 0.05375546, 0.25813726, 0.00000000, 0.00000000, 0.00000000, -0.99402484, 0.10295723, -0.00890502, 0.03514431
424170172.877910, -0.07571411, 0.10220337, 1.32237244, -0.63920873, 0.51742690, 0.43725936, -170.24867249, 136.71224976, 190.54678345, -0.00257693, 0.06275441, 0.99802566, -0.04023924, 0.04956553, 0.37294599, 0.00000000, 0.00000000, 0.00000000, -0.99381550, 0.10650633, -0.00462693, 0.03107660
424170172.894126, -0.35067749, 0.14178467, 1.04237366, -0.50741048, 0.13805002, 0.36130361, -169.73536682, 135.85671997, 191.37886047, -0.00554763, 0.05220805, 0.99862081, -0.07016648, 0.04999532, 0.32375163, 0.00000000, 0.00000000, 0.00000000, -0.99356618, 0.11016649, -0.00563564, 0.02564818
424170172.909834, -0.19073486, -0.00660706, 1.26573181, -0.76077031, -0.35533600, 0.19446189, -170.24867249, 135.68562317, 190.21394348, -0.01194687, 0.04367459, 0.99897438, -0.33873060, 0.09811008, 0.04339928, 0.00000000, 0.00000000, 0.00000000, -0.99326163, 0.11365965, -0.00841952, 0.02102199
424170172.926207, -0.19073486, -0.00660706, 1.26573181, -0.83408607, -0.03690049, 0.09193658, -166.82659912, 135.00120544, 188.88261414, -0.00714086, 0.03340731, 0.99941629, -0.24626185, 0.02279081, 0.18552022, 0.00000000, 0.00000000, 0.00000000, -0.99315645, 0.11553540, -0.00547746, 0.01618155
424170172.941258, -0.16645813, 0.07119751, 1.05320740, -0.69636816, 0.15053811, -0.05596500, -167.68211365, 135.85671997, 188.71620178, -0.00500955, 0.01954023, 0.99979651, -0.18751059, 0.06278093, 0.10934959, 0.00000000, 0.00000000, 0.00000000, -0.99311311, 0.11672448, -0.00362831, 0.00941142
424170172.956537, -0.08555603, 0.02427673, 1.08981323, -0.97672525, 0.32528063, -0.17236112, -169.90646362, 138.42327881, 189.88111877, -0.00615524, 0.00864138, 0.99994373, -0.11629654, 0.02349363, 0.16656019, 0.00000000, 0.00000000, 0.00000000, -0.99314641, 0.11675642, -0.00356110, 0.00393185
424170172.972743, 0.04200745, 0.04150391, 0.90664673, -0.71732723, 0.26857101, -0.24276178, -169.73536682, 139.27880859, 189.71469116, -0.01077349, -0.00600494, 0.99992394, -0.07478254, 0.03028167, 0.08988930, 0.00000000, 0.00000000, 0.00000000, -0.99325242, 0.11580845, -0.00500287, -0.00360618
424170172.988673, 0.17897034, -0.01725769, 0.77926636, -0.69963745, 0.14168656, -0.17020689, -169.05094910, 138.59439087, 190.38035583, -0.01519143, -0.01890244, 0.99970591, 0.05719887, 0.06040635, -0.09305919, 0.00000000, 0.00000000, 0.00000000, -0.99339247, 0.11412431, -0.00646786, -0.01025713
424170173.004882, 0.17897034, -0.01725769, 0.77926636, -0.40838324, -0.51739840, -0.03268684, -169.05094910, 138.59439087, 190.38035583, -0.01856051, -0.03014737, 0.99937314, 0.13837251, 0.01739102, -0.09435908, 0.00000000, 0.00000000, 0.00000000, -0.99347595, 0.11265919, -0.00752388, -0.01602587
424170173.020610, 0.26077271, -0.03215027, 0.69375610, -0.15180791, -0.98463271, 0.14259097, -169.73536682, 138.93659973, 190.38035583, -0.01425671, -0.03864701, 0.99915123, 0.24477124, 0.02753862, -0.32950401, 0.00000000, 0.00000000, 0.00000000, -0.99347443, 0.11217920, -0.00491623, -0.02000555
424170173.036099, 0.30339050, -0.03414917, 0.84481812, 0.07980109, -0.66366614, 0.34473528, -169.22206116, 139.10769653, 188.88261414, -0.00041446, -0.04233423, 0.99910343, 0.28868350, 0.01543298, -0.23428713, 0.00000000, 0.00000000, 0.00000000, -0.99335603, 0.11311725, 0.00218949, -0.02105936
424170173.052241, 0.23690796, 0.00408936, 0.88195801, 0.20999478, -0.07991161, 0.48153947, -169.90646362, 137.73886108, 188.54977417, 0.01237012, -0.04241840, 0.99902338, 0.29102039, 0.00826923, -0.15420523, 0.00000000, 0.00000000, 0.00000000, -0.99305697, 0.11554021, 0.00859683, -0.02035726
424170173.067788, 0.14152527, -0.00222778, 0.90046692, 0.27639857, -0.03554681, 0.54233145, -170.24867249, 137.05444336, 189.88111877, 0.01604177, -0.04000615, 0.99907064, 0.22086619, 0.04409550, -0.11711264, 0.00000000, 0.00000000, 0.00000000, -0.99264112, 0.11915925, 0.01035022, -0.01890890
424170173.083369, 0.14152527, -0.00222778, 0.90046692, 0.16737062, -0.22153878, 0.57067681, -169.05094910, 137.22555542, 188.71620178, 0.01600900, -0.03594834, 0.99922544, 0.17283377, 0.04261643, -0.13492182, 0.00000000, 0.00000000, 0.00000000, -0.99216951, 0.12333847, 0.01016267, -0.01685269
424170173.099342, 0.09849548, 0.01579285, 0.91435242, 0.24466461, -0.09579417, 0.58754953, -171.44641113, 138.59439087, 190.38035583, 0.01824304, -0.03305225, 0.99928713, 0.09514502, 0.03213672, -0.08615540, 0.00000000, 0.00000000, 0.00000000, -0.99160757, 0.12789835, 0.01116261, -0.01522623
424170173.115056, 0.02020264, 0.00936890, 0.99592590, 0.28529646, 0.22836047, 0.56778035, -169.22206116, 138.08106995, 190.87960815, 0.02080633, -0.03017381, 0.99932808, 0.03873347, 0.04517320, -0.04154916, 0.00000000, 0.00000000, 0.00000000, -0.99100478, 0.13256536, 0.01231372, -0.01357666
424170173.130852, -0.04797363, 0.00004578, 1.00749207, 0.28529646, 0.22836047, 0.56778035, -170.59088135, 139.44990540, 188.88261414, 0.01829921, -0.02595574, 0.99949557, 0.00190343, 0.03532463, -0.00356969, 0.00000000, 0.00000000, 0.00000000, -0.99041562, 0.13720310, 0.01084525, -0.01160106
424170173.146483, -0.10932922, 0.00157166, 0.95317078, 0.12146411, -0.17891675, 0.43706308, -170.59088135, 139.44990540, 188.88261414, 0.01481468, -0.02269400, 0.99963266, -0.06278832, 0.02273978, 0.00785938, 0.00000000, 0.00000000, 0.00000000, -0.98985711, 0.14141867, 0.00893853, -0.01018625
424170173.164951, -0.10932922, 0.00157166, 0.95317078, 0.12167530, -0.55312684, 0.32490432, -173.32855225, 138.08106995, 188.88261414, 0.01518355, -0.02061181, 0.99967223, -0.09311018, 0.01455407, -0.01253541, 0.00000000, 0.00000000, 0.00000000, -0.98932564, 0.14515820, 0.00900820, -0.00909538
424170173.178407, -0.09410095, 0.00070190, 0.96881104, 0.24595331, -0.38154603, 0.24410242, -173.32855225, 138.08106995, 188.88261414, 0.02233307, -0.01911528, 0.99956781, -0.13677399, 0.02006133, -0.04560359, 0.00000000, 0.00000000, 0.00000000, -0.98885898, 0.14812779, 0.01246057, -0.00779877
424170173.194194, -0.05895996, -0.00590515, 1.02998352, 0.37944373, 0.22333162, 0.21136764, -171.44641113, 137.22555542, 189.38186646, 0.02973348, -0.01621336, 0.99942636, -0.09876424, 0.02291197, -0.01773691, 0.00000000, 0.00000000, 0.00000000, -0.98848365, 0.15037701, 0.01591915, -0.00577936
424170173.209905, -0.09336853, 0.00614929, 1.00955200, 0.47532925, 0.53526555, 0.15123506, -169.56427002, 136.37004089, 189.21545410, 0.02971361, -0.01102220, 0.99949765, -0.08867358, 0.00511705, 0.03048584, 0.00000000, 0.00000000, 0.00000000, -0.98821550, 0.15224640, 0.01552467, -0.00318506
424170173.225425, -0.09042358, -0.02725220, 1.02949524, 0.26679761, 0.07385398, 0.09945495, -170.59088135, 136.02783203, 187.55128479, 0.02191120, -0.00416665, 0.99975121, -0.11527973, 0.01031594, 0.00980076, 0.00000000, 0.00000000, 0.00000000, -0.98804622, 0.15375398, 0.01114634, -0.00037400
424170173.241535, -0.09042358, -0.02725220, 1.02949524, 0.19840124, 1.44462667, 0.10533361, -169.22206116, 135.00120544, 187.88410950, 0.01745309, 0.00151980, 0.99984652, -0.10787667, -0.02877200, 0.02964871, 0.00000000, 0.00000000, 0.00000000, -0.98790904, 0.15478691, 0.00850406, 0.00210163
424170173.256759, -0.09953308, 0.10083008, 0.97914124, 0.11782384, 0.51283881, -0.01814119, -171.10420227, 136.54113770, 189.04902649, 0.00611468, 0.00426616, 0.99997222, -0.01462909, -0.03843059, 0.55463898, 0.00000000, 0.00000000, 0.00000000, -0.98780272, 0.15566598, 0.00268804, 0.00258302
424170173.272977, 0.09104919, -0.00466919, 1.52380371, -0.40023876, 0.43307420, 0.02749474, -171.95971680, 136.71224976, 188.88261414, -0.00669102, 0.00658206, 0.99995595, 0.05558018, -0.12387637, 0.20904368, 0.00000000, 0.00000000, 0.00000000, -0.98778156, 0.15577406, -0.00381737, 0.00272973
424170173.288927, 0.15989685, -0.04898071, 1.26057434, -0.35150451, 0.55113613, 0.09864349, -171.44641113, 139.27880859, 189.71469116, -0.01072359, 0.00329900, 0.99993706, 0.10177278, -0.00796819, 0.52386665, 0.00000000, 0.00000000, 0.00000000, -0.98774479, 0.15597682, -0.00555354, 0.00079299
424170173.305726, 0.10224915, -0.11492920, 1.24340820, -0.74560521, 0.21893208, 0.20420853, -170.24867249, 138.08106995, 188.88261414, -0.01980850, -0.00292465, 0.99979949, 0.17970535, -0.04605606, 0.26077482, 0.00000000, 0.00000000, 0.00000000, -0.98760708, 0.15662699, -0.00955343, -0.00299578
424170173.321251, 0.10224915, -0.11492920, 1.24340820, -0.93472454, -0.32951079, 0.25359978, -170.24867249, 138.08106995, 188.88261414, -0.02526554, -0.01254429, 0.99960208, 0.12751469, -0.10238491, 0.24380614, 0.00000000, 0.00000000, 0.00000000, -0.98733143, 0.15804330, -0.01148374, -0.00819084
424170173.336580, -0.28012085, -0.05284119, 1.06336975, -0.95562103, -0.49144297, 0.09588152, -169.39315796, 137.90997314, 189.04902649, -0.02352645, -0.02662309, 0.99936867, -0.07472490, -0.08615462, 0.11787988, 0.00000000, 0.00000000, 0.00000000, -0.98691752, 0.16024400, -0.00947923, -0.01502713
424170173.352510, -0.36203003, -0.08361816, 0.87707520, -0.64587968, 0.06728210, -0.07312268, -170.76199341, 137.90997314, 188.71620178, -0.01540536, -0.04195888, 0.99900055, -0.32570487, -0.00512974, -0.00115205, 0.00000000, 0.00000000, 0.00000000, -0.98658905, 0.16168591, -0.00420940, -0.02195447
424170173.367939, -0.22116089, -0.08518982, 0.86822510, -0.49699406, 0.79981918, -0.21297033, -170.24867249, 137.73886108, 189.21545410, -0.01278284, -0.05384887, 0.99846727, -0.34924719, -0.02976930, -0.12139208, 0.00000000, 0.00000000, 0.00000000, -0.98645148, 0.16170072, -0.00195262, -0.02761431
424170173.383623, -0.00387573, -0.08274841, 0.84698486, -0.44509678, 0.79811502, -0.25435665, -168.70874023, 137.22555542, 188.71620178, -0.02169082, -0.06276618, 0.99779254, -0.19947007, -0.02242364, -0.12956743, 0.00000000, 0.00000000, 0.00000000, -0.98649410, 0.16039220, -0.00567159, -0.03273488
424170173.399789, -0.00387573, -0.08274841, 0.84698486, -0.46830489, 0.10403452, -0.20333821, -170.24867249, 140.47653198, 186.88562012, -0.03519110, -0.06988288, 0.99693429, 0.03131537, -0.01286553, -0.14994942, 0.00000000, 0.00000000, 0.00000000, -0.98661365, 0.15830552, -0.01184675, -0.03731638
424170173.415089, 0.00209045, -0.08558655, 0.84793091, -0.48546897, -0.72548716, -0.15335387, -171.10420227, 140.64764404, 188.71620178, -0.04084557, -0.07731767, 0.99616945, 0.07836694, -0.00565963, -0.13018742, 0.00000000, 0.00000000, 0.00000000, -0.98669746, 0.15656585, -0.01412551, -0.04142142
424170173.431226, -0.05755615, -0.07456970, 0.80390930, -0.27000965, -1.29260225, -0.12332966, -170.93309021, 140.47653198, 188.54977417, -0.03281734, -0.08553375, 0.99579465, 0.00223872, 0.01935638, -0.16824949, 0.00000000, 0.00000000, 0.00000000, -0.98675762, 0.15558511, -0.00955759, -0.04484779
424170173.447146, 0.42013550, -0.15591431, 0.80195618, -0.09928051, -1.60031773, 0.10143448, -173.15745544, 140.98985291, 190.04753113, -0.01593690, -0.09077057, 0.99574429, -0.04161925, 0.01620087, -0.19183500, 0.00000000, 0.00000000, 0.00000000, -0.98683003, 0.15504399, -0.00082855, -0.04612116
424170173.462856, 0.05932617, -0.09948730, 1.03175354, -0.00265783, -1.28520586, 0.17986511, -173.15745544, 140.98985291, 190.04753113, 0.00877143, -0.09349909, 0.99558073, 0.41136408, -0.06241521, -0.19362456, 0.00000000, 0.00000000, 0.00000000, -0.98666695, 0.15581623, 0.01163729, -0.04554350
424170173.478508, 0.05932617, -0.09948730, 1.03175354, 0.27678020, -0.52685902, 0.17798491, -172.47303772, 140.30543518, 189.04902649, 0.03121493, -0.09414724, 0.99506879, 0.02811124, -0.00534006, 0.03668474, 0.00000000, 0.00000000, 0.00000000, -0.98622850, 0.15775851, 0.02287519, -0.04407180
424170173.494457, 0.18453979, -0.06095886, 0.92097473, 0.42984965, -0.13482706, 0.28738544, -172.47303772, 139.27880859, 190.38035583, 0.04338809, -0.09212921, 0.99480134, -0.00087711, 0.01673553, -0.03040008, 0.00000000, 0.00000000, 0.00000000, -0.98587679, 0.15952310, 0.02881092, -0.04206266
424170173.510060, 0.21356201, -0.08178711, 1.08944702, 0.18420340, -0.45017303, 0.41922204, -171.95971680, 137.39665222, 187.88410950, 0.04614235, -0.08518547, 0.99529612, 0.17962669, -0.02440315, 0.06712761, 0.00000000, 0.00000000, 0.00000000, -0.98564819, 0.16169628, 0.02969700, -0.03834110
424170173.526456, 0.17807007, -0.06568909, 0.98590088, 0.05990009, -0.97512788, 0.54998990, -172.81524658, 137.90997314, 188.71620178, 0.05034420, -0.08154225, 0.99539757, 0.16321781, -0.00024486, 0.09404945, 0.00000000, 0.00000000, 0.00000000, -0.98514723, 0.16487486, 0.03159306, -0.03609838
424170173.541779, 0.22874451, -0.01971436, 0.94950867, 0.25457024, -1.13656605, 0.66571437, -173.49966431, 138.93659973, 190.04753113, 0.06256168, -0.08065108, 0.99477708, 0.11550839, 0.01496200, -0.00887620, 0.00000000, 0.00000000, 0.00000000, -0.98426695, 0.16913640, 0.03770769, -0.03449044
424170173.557227, 0.22874451, -0.01971436, 0.94950867, 0.26571610, -1.14873430, 0.78550709, -175.38180542, 139.10769653, 191.54527283, 0.07925002, -0.07876479, 0.99373817, 0.14949450, 0.05905043, -0.04422950, 0.00000000, 0.00000000, 0.00000000, -0.98307609, 0.17444333, 0.04596832, -0.03190346
424170173.573274, 0.33305359, -0.05857849, 1.25321960, -0.04969272, -1.05412417, 0.89552760, -176.40843201, 141.84536743, 190.87960815, 0.09617868, -0.07527586, 0.99251360, 0.20094046, 0.03155943, 0.09200485, 0.00000000, 0.00000000, 0.00000000, -0.98162823, 0.18072856, 0.05421103, -0.02836150
424170173.589329, 0.22140503, -0.03961182, 1.15341187, -0.22606349, -1.19211772, 0.88672771, -176.75064087, 139.79211426, 191.21244812, 0.11226564, -0.07603357, 0.99076504, 0.20139402, 0.03219507, 0.29216346, 0.00000000, 0.00000000, 0.00000000, -0.97985877, 0.18777460, 0.06242909, -0.02683467
424170173.604723, -0.01762390, -0.05368042, 1.00012207, -0.16788887, -1.18374767, 0.78039728, -177.26394653, 142.35868835, 192.04452515, 0.12864459, -0.08086220, 0.98838854, -0.04342426, 0.02461831, 0.03683425, 0.00000000, 0.00000000, 0.00000000, -0.97783927, 0.19499903, 0.07119423, -0.02714996
424170173.621558, 0.00578308, -0.03266907, 0.93998718, 0.03499527, -0.95903467, 0.67802537, -177.09284973, 139.10769653, 190.54678345, 0.14670412, -0.08585124, 0.98544782, -0.16432802, 0.03217081, 0.01467422, 0.00000000, 0.00000000, 0.00000000, -0.97574252, 0.20161957, 0.08081539, -0.02729373
424170173.636818, 0.18763733, -0.04618835, 1.01222229, 0.16444940, -0.84627057, 0.52762707, -177.09284973, 139.10769653, 190.54678345, 0.16144359, -0.08828200, 0.98292536, -0.15566051, 0.05561293, -0.04293817, 0.00000000, 0.00000000, 0.00000000, -0.97388192, 0.20740464, 0.08852431, -0.02647205
424170173.652732, 0.18763733, -0.04618835, 1.01222229, 0.13357404, -0.72488821, 0.49790646, -177.94836426, 140.30543518, 190.04753113, 0.17427483, -0.08793020, 0.98076326, -0.09245720, 0.07651663, -0.01485139, 0.00000000, 0.00000000, 0.00000000, -0.97230367, 0.21214899, 0.09496458, -0.02449694
424170173.668104, 0.33515930, -0.01843262, 0.97309875, 0.20168705, -0.57428699, 0.56281755, -175.89511108, 138.93659973, 191.37886047, 0.18552731, -0.08716737, 0.97876525, 0.08786441, 0.05515444, 0.05604002, 0.00000000, 0.00000000, 0.00000000, -0.97086650, 0.21633512, 0.10055746, -0.02248463
424170173.683980, 0.32920837, -0.00016785, 0.95706177, 0.35515437, -0.52677673, 0.64319255, -177.43505859, 140.47653198, 191.87811279, 0.19431500, -0.08639185, 0.97712749, 0.16701312, 0.06383936, -0.04167217, 0.00000000, 0.00000000, 0.00000000, -0.96944922, 0.22075317, 0.10492485, -0.02066476
424170173.700094, 0.31904602, -0.01292419, 1.09835815, 0.29317675, -0.70579122, 0.70938968, -178.46168518, 140.47653198, 191.87811279, 0.20163232, -0.08369458, 0.97587889, 0.12757605, 0.08352674, -0.01881713, 0.00000000, 0.00000000, 0.00000000, -0.96793053, 0.22594232, 0.10834481, -0.01794304
424170173.715740, 0.25784302, -0.00729370, 1.05606079, 0.01623037, -0.92781949, 0.80288608, -179.48831177, 141.16094971, 190.54678345, 0.21071893, -0.08090784, 0.97419274, 0.10832709, 0.06798364, 0.12416544, 0.00000000, 0.00000000, 0.00000000, -0.96614214, 0.23165863, 0.11261689, -0.01486867
424170173.731166, 0.25784302, -0.00729370, 1.05606079, -0.16504541, -1.13659800, 0.85803029, -178.80389404, 142.18757629, 192.87660217, 0.22250748, -0.08204623, 0.97147250, 0.07552720, 0.06239291, 0.15042995, 0.00000000, 0.00000000, 0.00000000, -0.96393256, 0.23784507, 0.11869123, -0.01327167
424170173.746983, 0.26083374, -0.02853394, 0.96372986, -0.15470702, -1.13740840, 0.92562957, -181.37045288, 143.04309082, 194.04151917, 0.23820336, -0.08699545, 0.96731120, 0.02145545, 0.07056173, 0.04248495, 0.00000000, 0.00000000, 0.00000000, -0.96123397, 0.24430485, 0.12719013, -0.01292563
424170173.764593, 0.33573914, -0.03686523, 0.99145508, -0.27136280, -1.20524072, 0.99078514, -180.17272949, 142.18757629, 192.87660217, 0.25417396, -0.09307439, 0.96266961, 0.02663354, 0.05872685, 0.00363899, 0.00000000, 0.00000000, 0.00000000, -0.95825147, 0.25117509, 0.13600890, -0.01291430
424170173.778891, 0.42221069, -0.01361084, 0.93843079, -0.32699943, -1.33706746, 1.14396351, -180.17272949, 142.18757629, 192.87660217, 0.27064958, -0.10060920, 0.95740616, 0.06508954, 0.06374396, 0.03404890, 0.00000000, 0.00000000, 0.00000000, -0.95494528, 0.25842330, 0.14532258, -0.01335140
424170173.794652, 0.41340637, -0.00556946, 0.92755127, -0.27123097, -1.56401086, 1.30369965, -180.68603516, 140.30543518, 193.04302979, 0.28811422, -0.11040723, 0.95120996, 0.13409647, 0.09679639, -0.01277920, 0.00000000, 0.00000000, 0.00000000, -0.95108822, 0.26652615, 0.15551809, -0.01446131
424170173.810557, 0.41340637, -0.00556946, 0.92755127, -0.21950147, -1.68372634, 1.43375964, -181.37045288, 139.96322632, 193.70869446, 0.30830950, -0.12098300, 0.94356155, 0.11181076, 0.10688388, -0.05582045, 0.00000000, 0.00000000, 0.00000000, -0.94644654, 0.27571675, 0.16729878, -0.01517722
424170173.826346, 0.29661560, 0.08071899, 1.17166138, -0.56314379, -1.91806454, 1.36341091, -181.88375854, 141.84536743, 194.54077148, 0.32981852, -0.13134953, 0.93486202, 0.04849263, 0.17347905, 0.13662538, 0.00000000, 0.00000000, 0.00000000, -0.94102409, 0.28618995, 0.17983612, -0.01509789
424170173.841944, 0.22624207, 0.02865601, 1.04406738, -0.89832738, -2.30117518, 1.21385045, -182.73928833, 144.06971741, 195.70568848, 0.35350221, -0.14542447, 0.92406058, -0.11569398, 0.20014249, 0.21928051, 0.00000000, 0.00000000, 0.00000000, -0.93503751, 0.29620118, 0.19417930, -0.01625186
424170173.858069, 0.34695435, -0.10806274, 0.66839600, -0.89597874, -2.88010113, 1.22166736, -183.42370605, 146.12297058, 196.37135315, 0.38188854, -0.16451651, 0.90944791, -0.15564647, 0.19317251, 0.13461949, 0.00000000, 0.00000000, 0.00000000, -0.92841490, 0.30458123, 0.21192495, -0.01907541
424170173.873386, 0.45640564, -0.27873230, 0.59448242, -0.63303046, -3.38577949, 1.41499208, -184.79254150, 146.46517944, 198.03552246, 0.41641831, -0.18546017, 0.89005637, -0.06946396, 0.07739742, -0.22166036, 0.00000000, 0.00000000, 0.00000000, -0.92061221, 0.31225204, 0.23346928, -0.02153874
