Timestamp, AccelerationX, AccelerationY, AccelerationZ, GyroX, GyroY, GyroZ, MagnetometerX, MagnetometerY, MagnetometerZ, DMUserAccelerationX, DMUserAccelerationY, DMUserAccelerationZ, DMGravityX, DMGravityY, DMGravityZ, DMMagX, DMMagY, DMMagZ, DMAttitudeX, DMAttitudeY, DMAttitudeZ, DMAttitudeW 
424169899.395427, 0.06480408, -0.45185852, -0.74385071, 0.10112396, 0.17312198, 0.15059430, -160.66683960, 145.26745605, 234.81353760, 0.03087577, -0.39671883, -0.91742074, -0.01248893, -0.02802483, 0.12286510, 0.00000000, 0.00000000, 0.00000000, 0.19517470, -0.05653718, -0.34458462, 0.91649977
424169899.410891, 0.10737610, -0.45249939, -0.82177734, 0.00534124, 0.22163040, 0.17135444, -159.46911621, 146.80738831, 236.31129456, 0.03138141, -0.39884055, -0.91648316, -0.00269488, -0.03710306, 0.18046023, 0.00000000, 0.00000000, 0.00000000, 0.19641555, -0.05638564, -0.34307674, 0.91680966
424169899.428392, 0.10737610, -0.45249939, -0.82177734, -0.05638684, 0.19650906, 0.20753508, -161.00904846, 146.29408264, 236.47770691, 0.03321178, -0.39918163, -0.91627014, 0.06330006, -0.05467580, 0.13050357, 0.00000000, 0.00000000, 0.00000000, 0.19701387, -0.05523092, -0.34145953, 0.91735515
424169899.445226, 0.09326172, -0.45672607, -0.91337585, -0.05429679, 0.11379155, 0.23527297, -161.86457825, 144.75413513, 235.31278992, 0.03479277, -0.39858371, -0.91647178, 0.07252229, -0.05762355, 0.04348592, 0.00000000, 0.00000000, 0.00000000, 0.19710812, -0.05396770, -0.33962865, 0.91808946
424169899.458848, 0.08923340, -0.44511414, -0.91998291, -0.00873703, 0.02495329, 0.25521499, -159.98242188, 146.63629150, 236.81053162, 0.03742220, -0.39959809, -0.91592628, 0.05583952, -0.05712799, 0.00255043, 0.00000000, 0.00000000, 0.00000000, 0.19819155, -0.05250687, -0.33777985, 0.91862284
424169899.474927, 0.04545593, -0.44992065, -0.88880920, 0.00240723, -0.01843493, 0.23249343, -161.35125732, 146.29408264, 234.81353760, 0.03631500, -0.39923373, -0.91612971, 0.05291840, -0.04588040, -0.00385320, 0.00000000, 0.00000000, 0.00000000, 0.19792584, -0.05254053, -0.33579981, 0.91940380
424169899.490352, 0.03976440, -0.44903564, -0.89651489, 0.02243474, -0.02339081, 0.20352250, -157.92918396, 145.60966492, 235.81204224, 0.03446310, -0.39921948, -0.91620743, 0.03285868, -0.04793933, 0.01528277, 0.00000000, 0.00000000, 0.00000000, 0.19769687, -0.05303039, -0.33396778, 0.92009198
424169899.506801, 0.03228760, -0.45634460, -0.85832214, 0.05935307, -0.00155981, 0.17983075, -159.29800415, 146.29408264, 237.14337158, 0.03299391, -0.40146783, -0.91527861, 0.00371874, -0.04259346, 0.02257845, 0.00000000, 0.00000000, 0.00000000, 0.19866197, -0.05379685, -0.33229330, 0.92044581
424169899.522134, 0.03228760, -0.45634460, -0.85832214, 0.06720620, 0.04622475, 0.17489085, -159.29800415, 146.29408264, 237.14337158, 0.03144257, -0.40206748, -0.91507000, 0.00757415, -0.05311744, 0.03674358, 0.00000000, 0.00000000, 0.00000000, 0.19877668, -0.05434000, -0.33084180, 0.92091188
424169899.538422, 0.01600647, -0.46351624, -0.80685425, 0.02961994, 0.11387251, 0.13256470, -159.29800415, 145.95187378, 235.81204224, 0.03061801, -0.40567178, -0.91350585, 0.00166958, -0.05067283, 0.05518371, 0.00000000, 0.00000000, 0.00000000, 0.20053722, -0.05506267, -0.32924102, 0.92106095
424169899.554182, 0.05001831, -0.46519470, -0.81803894, -0.05181606, 0.23666660, 0.09768448, -159.12690735, 146.12297058, 236.97695923, 0.03077540, -0.40626189, -0.91323829, -0.01476893, -0.05725435, 0.10638403, 0.00000000, 0.00000000, 0.00000000, 0.20094093, -0.05480512, -0.32790116, 0.92146621
424169899.569272, 0.05065918, -0.45437622, -0.90336609, -0.11658813, 0.22991229, 0.08060137, -160.15353394, 146.12297058, 235.97845459, 0.03276735, -0.40584809, -0.91335297, -0.00188356, -0.06340545, 0.11660003, 0.00000000, 0.00000000, 0.00000000, 0.20114632, -0.05351336, -0.32672006, 0.92191674
424169899.585733, 0.05065918, -0.45437622, -0.90336609, -0.12268464, 0.21111091, 0.05461877, -159.81132507, 145.43855286, 237.64262390, 0.03619921, -0.40773442, -0.91238272, 0.01485670, -0.05538508, 0.05389274, 0.00000000, 0.00000000, 0.00000000, 0.20275430, -0.05195506, -0.32554555, 0.92206912
424169899.601080, 0.06755066, -0.46400452, -0.97271729, -0.10991159, 0.12696940, 0.04985517, -160.83795166, 146.80738831, 236.64411926, 0.03875217, -0.40583697, -0.91312355, 0.02135220, -0.04983626, -0.03000694, 0.00000000, 0.00000000, 0.00000000, 0.20228511, -0.05018921, -0.32468669, 0.92257267
424169899.617080, 0.08283997, -0.45993042, -0.97953796, -0.06190092, -0.03322080, 0.04768177, -161.35125732, 145.60966492, 237.14337158, 0.04137448, -0.40496850, -0.91339403, 0.02617618, -0.05903602, -0.05932325, 0.00000000, 0.00000000, 0.00000000, 0.20233356, -0.04862213, -0.32401786, 0.92288106
424169899.632666, 0.05307007, -0.47987366, -0.90184021, -0.05730164, -0.11142426, 0.05224350, -160.83795166, 146.12297058, 236.97695923, 0.04122330, -0.40372667, -0.91395044, 0.04161667, -0.05620375, -0.06558752, 0.00000000, 0.00000000, 0.00000000, 0.20170910, -0.04835512, -0.32350389, 0.92321203
424169899.648406, 0.06373596, -0.48284912, -0.88745117, -0.08616125, -0.00506560, 0.04906288, -158.95579529, 145.95187378, 236.47770691, 0.03922044, -0.40273246, -0.91447705, 0.02425613, -0.06009714, -0.02773789, 0.00000000, 0.00000000, 0.00000000, 0.20088387, -0.04906251, -0.32316273, 0.92347409
424169899.664774, 0.06373596, -0.48284912, -0.88745117, -0.11742117, 0.03502909, 0.08781401, -159.29800415, 144.58303833, 236.14486694, 0.03851241, -0.40410680, -0.91390067, 0.01712113, -0.08570033, 0.03319391, 0.00000000, 0.00000000, 0.00000000, 0.20148022, -0.04955171, -0.32269337, 0.92348218
424169899.680665, 0.05691528, -0.46961975, -0.91773987, -0.10476476, 0.02105868, 0.10517089, -159.29800415, 144.58303833, 236.14486694, 0.03823032, -0.40236962, -0.91467869, 0.02881680, -0.06924904, 0.01257910, 0.00000000, 0.00000000, 0.00000000, 0.20059303, -0.04922481, -0.32202166, 0.92392716
424169899.696831, 0.03900146, -0.46109009, -0.93382263, -0.04489850, -0.05858209, 0.11494123, -159.81132507, 145.09634399, 234.97996521, 0.03843855, -0.40265331, -0.91454512, 0.01847674, -0.06696644, -0.00319474, 0.00000000, 0.00000000, 0.00000000, 0.20081827, -0.04898426, -0.32113836, 0.92419842
424169899.712214, -0.00553894, -0.45751953, -0.84536743, -0.02127626, -0.05646754, 0.10009225, -159.46911621, 146.12297058, 235.97845459, 0.03704821, -0.40161076, -0.91506076, 0.00195325, -0.05947931, -0.01876186, 0.00000000, 0.00000000, 0.00000000, 0.20010242, -0.04928118, -0.32029125, 0.92463177
424169899.727515, -0.02923584, -0.45733643, -0.75758362, -0.01635048, 0.01788313, 0.04668255, -160.32463074, 145.26745605, 236.47770691, 0.03376615, -0.40395048, -0.91415745, -0.03930509, -0.05356905, 0.06879003, 0.00000000, 0.00000000, 0.00000000, 0.20078559, -0.05105312, -0.31922035, 0.92475786
424169899.742866, -0.02923584, -0.45733643, -0.75758362, -0.04884770, 0.18120734, 0.00251536, -160.15353394, 145.09634399, 237.64262390, 0.03300724, -0.40361315, -0.91433418, -0.05659733, -0.05050367, 0.11306462, 0.00000000, 0.00000000, 0.00000000, 0.20051393, -0.05125511, -0.31874601, 0.92496922
424169899.760368, -0.04113770, -0.46336365, -0.71284485, -0.07680557, 0.47752343, -0.04985917, -159.81132507, 145.78076172, 236.97695923, 0.03433788, -0.40297702, -0.91456568, -0.06854808, -0.06511685, 0.18763699, 0.00000000, 0.00000000, 0.00000000, 0.20043925, -0.05041086, -0.31833911, 0.92517191
424169899.775072, -0.03312683, -0.43492126, -0.70866394, -0.13102673, 0.82059876, -0.11452978, -161.00904846, 144.24082947, 236.14486694, 0.03969911, -0.40185022, -0.91484445, -0.08083681, -0.06151341, 0.20199960, 0.00000000, 0.00000000, 0.00000000, 0.20079619, -0.04752542, -0.31788336, 0.92540391
424169899.790827, -0.00195312, -0.44473267, -0.68748474, -0.21227684, 1.09259566, -0.18299698, -159.64021301, 143.55641174, 235.47920227, 0.05032894, -0.39994168, -0.91515774, -0.08345577, -0.03497959, 0.20649378, 0.00000000, 0.00000000, 0.00000000, 0.20164641, -0.04195076, -0.31737132, 0.92566425
424169899.806708, 0.02859497, -0.43273926, -0.73724365, -0.31592601, 1.29002245, -0.24945138, -160.49574280, 143.04309082, 236.64411926, 0.06559907, -0.39710915, -0.91542399, -0.06755219, -0.04762353, 0.22793925, 0.00000000, 0.00000000, 0.00000000, 0.20281263, -0.03398585, -0.31687963, 0.92590458
424169899.822860, 0.10292053, -0.44332886, -0.75749207, -0.39001355, 1.20837898, -0.30512609, -160.49574280, 143.04309082, 236.64411926, 0.08482664, -0.39270982, -0.91574204, -0.08142393, -0.04234878, 0.22758590, 0.00000000, 0.00000000, 0.00000000, 0.20386013, -0.02387548, -0.31651489, 0.92611518
424169899.838722, 0.10292053, -0.44332886, -0.75749207, -0.42891301, 1.27627601, -0.30789018, -161.18016052, 144.41192627, 235.64562988, 0.10431764, -0.38679683, -0.91624564, -0.03897951, -0.04965032, 0.16801564, 0.00000000, 0.00000000, 0.00000000, 0.20419463, -0.01348123, -0.31658763, 0.92622626
424169899.853947, 0.13890076, -0.40390015, -0.78485107, -0.41020031, 1.35114333, -0.26454537, -162.89120483, 145.43855286, 236.31129456, 0.12391949, -0.37995550, -0.91666669, -0.02099896, -0.06337336, 0.15917461, 0.00000000, 0.00000000, 0.00000000, 0.20410338, -0.00291163, -0.31678410, 0.92627273
424169899.869716, 0.10427856, -0.35688782, -0.72259521, -0.39573455, 1.74109776, -0.23693372, -162.89120483, 143.72750854, 236.64411926, 0.14444144, -0.37329778, -0.91639805, -0.00554068, -0.03060235, 0.13154700, 0.00000000, 0.00000000, 0.00000000, 0.20429013, 0.00815508, -0.31654398, 0.92628233
424169899.885865, 0.08052063, -0.39727783, -0.77871704, -0.40789508, 2.37153377, -0.22886221, -164.77334595, 145.26745605, 235.81204224, 0.16873597, -0.36672834, -0.91489810, -0.06445741, 0.00984053, 0.19230287, 0.00000000, 0.00000000, 0.00000000, 0.20518954, 0.02117106, -0.31560779, 0.92619694
424169899.901517, 0.10687256, -0.35636902, -0.74807739, -0.16135241, 3.11075378, -0.33382698, -167.16880798, 144.24082947, 236.81053162, 0.20067818, -0.35997510, -0.91112357, -0.09211190, -0.03713487, 0.18619378, 0.00000000, 0.00000000, 0.00000000, 0.20732206, 0.03815459, -0.31358502, 0.92586512
424169899.917134, 0.10687256, -0.35636902, -0.74807739, 0.11781558, 3.74437786, -0.49840793, -168.19543457, 143.89862061, 237.80903625, 0.24343632, -0.35513821, -0.90256059, -0.16401432, -0.01412447, 0.09935318, 0.00000000, 0.00000000, 0.00000000, 0.21233109, 0.06029279, -0.31072458, 0.92451637
424169899.932895, 0.19174194, -0.27954102, -0.39309692, 0.14413960, 4.51305404, -0.75531962, -169.39315796, 145.43855286, 235.97845459, 0.29587513, -0.35353667, -0.88739491, -0.18900257, -0.00283234, 0.13931751, 0.00000000, 0.00000000, 0.00000000, 0.22084194, 0.08678353, -0.30780561, 0.92138654
424169899.948800, 0.33134460, -0.35575867, -0.38529968, 0.03199122, 5.15030108, -1.05893437, -171.95971680, 144.92524719, 233.81504822, 0.35728905, -0.35237026, -0.86497384, -0.16554710, 0.07282925, 0.47187692, 0.00000000, 0.00000000, 0.00000000, 0.23155160, 0.11788528, -0.30506370, 0.91620034
424169899.964712, 0.50074768, -0.37745667, -0.21690369, -0.37112907, 5.40748787, -1.35563715, -173.84187317, 142.70088196, 233.98146057, 0.42945158, -0.34727374, -0.83364999, -0.09810698, -0.00848494, 0.44835031, 0.00000000, 0.00000000, 0.00000000, 0.24291058, 0.15546529, -0.30255076, 0.90845365
424169899.980707, 0.72351074, -0.37437439, -0.50588989, -1.05684352, 5.58698919, -1.62865270, -173.84187317, 142.70088196, 233.98146057, 0.50461161, -0.33538821, -0.79553872, -0.08490335, -0.05068967, 0.47514993, 0.00000000, 0.00000000, 0.00000000, 0.25233537, 0.19636061, -0.30066488, 0.89853770
424169899.996281, 0.72351074, -0.37437439, -0.50588989, -0.97108707, 5.53121834, -1.50997319, -176.06622314, 143.21420288, 233.14938354, 0.58038265, -0.31183371, -0.75227374, -0.02276545, -0.05024211, 0.47669998, 0.00000000, 0.00000000, 0.00000000, 0.25682724, 0.24063024, -0.29880339, 0.88704757
424169900.012284, 1.08053589, -0.44502258, -0.96279907, -0.22186902, 5.29348114, -1.15928707, -177.60615540, 142.70088196, 230.98596191, 0.65137690, -0.28374058, -0.70370406, 0.07213383, -0.09063380, 0.19781417, 0.00000000, 0.00000000, 0.00000000, 0.25878944, 0.28491402, -0.29608165, 0.87417829
424169900.027728, 1.09893799, -0.57589722, -0.94573975, 0.01560772, 5.03521098, -0.61526079, -180.00161743, 142.70088196, 230.32029724, 0.71450555, -0.26594925, -0.64711112, 0.36603034, -0.17907333, -0.31568795, 0.00000000, 0.00000000, 0.00000000, 0.26565090, 0.32538291, -0.29265219, 0.85901703
424169900.043018, 0.91123962, -0.37788391, -0.78944397, 0.44155930, 5.34125452, -0.19834718, -183.25259399, 143.89862061, 228.48971558, 0.76744509, -0.25537321, -0.58805829, 0.33149290, -0.32052401, -0.35768142, 0.00000000, 0.00000000, 0.00000000, 0.27427186, 0.36158787, -0.28680938, 0.84366435
424169900.059423, 1.08178711, -0.49526978, -0.48851013, 0.80063065, 5.20352862, 0.12433181, -185.81916809, 142.70088196, 225.66064453, 0.81453425, -0.25460806, -0.52125680, 0.11387148, -0.19480903, -0.34080374, 0.00000000, 0.00000000, 0.00000000, 0.28711166, 0.39615464, -0.27780680, 0.82671143
424169900.075452, 1.08178711, -0.49526978, -0.48851013, 0.81975534, 4.62214883, 0.70025637, -185.47695923, 143.72750854, 226.65913391, 0.85521758, -0.25989071, -0.44839686, 0.16056003, -0.17869267, -0.22579749, 0.00000000, 0.00000000, 0.00000000, 0.30302786, 0.42892387, -0.26773130, 0.80778610
424169900.091601, 1.08288574, -0.42807007, 0.11709595, 0.42332410, 5.43783992, 1.07286909, -187.18798828, 144.06971741, 223.33081055, 0.88442886, -0.27230227, -0.37899476, 0.20036420, -0.24342956, 0.10981446, 0.00000000, 0.00000000, 0.00000000, 0.31989475, 0.45625647, -0.25552842, 0.79006494
424169900.106903, 1.01194763, -0.40644836, -0.15049744, 0.28980972, 5.76685803, 0.73827965, -187.87240601, 144.41192627, 221.99948120, 0.90683520, -0.28981298, -0.30603644, 0.17605051, -0.13825709, 0.42313239, 0.00000000, 0.00000000, 0.00000000, 0.33686179, 0.48322449, -0.23838919, 0.77213264
424169900.122723, 0.85441589, -0.37734985, -0.21450806, 0.01953402, 5.30108180, 0.49025067, -187.87240601, 144.41192627, 221.99948120, 0.92693120, -0.30414870, -0.21975468, 0.08501644, -0.10229966, 0.06925725, 0.00000000, 0.00000000, 0.00000000, 0.35277336, 0.51543536, -0.21817194, 0.74985222
424169900.138807, 0.61039734, -0.32699585, -0.28431702, 0.15303509, 5.33182267, 0.48284629, -189.07014465, 143.89862061, 219.83605957, 0.93941981, -0.31267279, -0.14044966, 0.01105014, -0.12357599, 0.00853742, 0.00000000, 0.00000000, 0.00000000, 0.36446514, 0.54492232, -0.20010858, 0.72813555
424169900.153994, 0.61039734, -0.32699585, -0.28431702, 0.34939315, 5.28177495, 0.30016675, -189.41235352, 143.89862061, 217.50624084, 0.94538218, -0.32033488, -0.06031705, -0.19483283, 0.00966594, -0.30264378, 0.00000000, 0.00000000, 0.00000000, 0.37516296, 0.57366735, -0.18187699, 0.70503850
424169900.169760, 0.40048218, -0.31823730, -0.15817261, 0.61840571, 5.24778449, -0.05490453, -188.72793579, 143.89862061, 213.51223755, 0.94501901, -0.32640207, 0.02002043, -0.49126837, -0.01621878, -0.24836820, 0.00000000, 0.00000000, 0.00000000, 0.38576637, 0.60099461, -0.16508558, 0.68024741
424169900.186356, 0.64726257, -0.29978943, 0.07574463, 0.71568353, 5.38457510, -0.31347883, -189.07014465, 143.89862061, 211.51524353, 0.93957281, -0.32710496, 0.10102135, -0.53909063, 0.00886765, -0.25919396, 0.00000000, 0.00000000, 0.00000000, 0.39553208, 0.62774601, -0.15103463, 0.65320584
424169900.201420, 0.92176819, -0.30140686, 0.02119446, 0.76835580, 5.82048450, -0.56286895, -188.55682373, 145.43855286, 209.35183716, 0.92892271, -0.32235676, 0.18217756, -0.28166017, 0.02256734, -0.10643293, 0.00000000, 0.00000000, 0.00000000, 0.40375921, 0.65426851, -0.13885666, 0.62420353
424169900.217320, 1.14721680, -0.32469177, 0.03213501, 1.03741709, 5.66418251, -0.49516554, -187.87240601, 144.75413513, 206.35633850, 0.91071504, -0.31304222, 0.26944888, -0.13504975, 0.02097373, -0.13121951, 0.00000000, 0.00000000, 0.00000000, 0.41098329, 0.68250800, -0.12653905, 0.59098513
424169900.233026, 1.14721680, -0.32469177, 0.03213501, 1.32976587, 5.18239004, -0.18707455, -188.04351807, 144.24082947, 204.85858154, 0.88532251, -0.30080062, 0.35457441, 0.22830968, -0.00715226, -0.35207197, 0.00000000, 0.00000000, 0.00000000, 0.41750173, 0.70921049, -0.11538142, 0.55623728
424169900.249777, 0.90008545, -0.19216919, 0.30535889, 1.57325203, 5.19442114, -0.10169707, -188.72793579, 145.26745605, 202.19592285, 0.85315686, -0.28933007, 0.43406388, 0.16579452, 0.02475791, -0.29478166, 0.00000000, 0.00000000, 0.00000000, 0.42593957, 0.73185204, -0.10574598, 0.52133085
424169900.264987, 0.87365723, -0.20693970, 0.62106323, 1.56276450, 5.63329144, -0.11426506, -187.53019714, 143.72750854, 201.69667053, 0.81546366, -0.27714151, 0.50814521, 0.08462176, 0.08497231, -0.20278634, 0.00000000, 0.00000000, 0.00000000, 0.43546725, 0.75129281, -0.09739997, 0.48625161
424169900.280482, 0.86502075, -0.15002441, 0.49345398, 1.50114028, 5.54282493, -0.07451898, -187.53019714, 143.72750854, 201.69667053, 0.76859832, -0.26248136, 0.58340389, 0.10505888, 0.05554166, 0.03765933, 0.00000000, 0.00000000, 0.00000000, 0.44458969, 0.77074118, -0.08804179, 0.44782440
424169900.296173, 0.81529236, -0.19766235, 0.50186157, 1.46859672, 3.57850900, 0.11697349, -184.79254150, 143.04309082, 200.03251648, 0.71294129, -0.24669825, 0.65639520, 0.13967404, 0.09780298, 0.00495124, 0.00000000, 0.00000000, 0.00000000, 0.45305326, 0.78926570, -0.07745128, 0.40719000
424169900.313582, 0.57431030, -0.16792297, 0.95225525, 1.31463059, 1.56690785, 0.48448306, -184.10812378, 140.98985291, 198.36834717, 0.66637003, -0.23130761, 0.70883554, 0.20483054, 0.06307946, -0.28647223, 0.00000000, 0.00000000, 0.00000000, 0.46031155, 0.80158034, -0.07099933, 0.37488843
424169900.327915, 0.57431030, -0.16792297, 0.95225525, 1.06173282, 1.34503457, 0.43391203, -184.27922058, 141.84536743, 197.86909485, 0.64077288, -0.21974051, 0.73561144, 0.02478498, 0.00186026, 0.02717541, 0.00000000, 0.00000000, 0.00000000, 0.46794124, 0.80550402, -0.07077747, 0.35662981
424169900.343304, 0.74320984, -0.11218262, 1.02989197, 0.92154082, 1.94574624, 0.23879926, -183.59480286, 141.16094971, 196.87060547, 0.62367904, -0.21138608, 0.75255591, -0.04936874, 0.04346311, 0.19969936, 0.00000000, 0.00000000, 0.00000000, 0.47501884, 0.80661952, -0.07175301, 0.34434511
424169900.359563, 0.72642517, -0.12026978, 1.06388855, 0.86966058, 2.42395410, 0.13218201, -183.59480286, 141.50315857, 195.53927612, 0.60172695, -0.20320472, 0.77241993, 0.14148289, 0.09102211, 0.25747204, 0.00000000, 0.00000000, 0.00000000, 0.48055812, 0.80948987, -0.07034033, 0.32991253
424169900.375476, 0.55818176, -0.12683105, 0.85830688, 0.81524288, 2.21607760, 0.25733380, -183.76591492, 142.35868835, 195.37284851, 0.57335395, -0.19378996, 0.79605949, 0.15307121, 0.07352018, 0.26782909, 0.00000000, 0.00000000, 0.00000000, 0.48511681, 0.81405860, -0.06702855, 0.31221377
424169900.392034, 0.55818176, -0.12683105, 0.85830688, 0.82082406, 1.65927879, 0.45061112, -182.22596741, 141.84536743, 194.87361145, 0.54250741, -0.18536603, 0.81934434, 0.10556390, 0.05052412, 0.08655470, 0.00000000, 0.00000000, 0.00000000, 0.48968594, 0.81846189, -0.06262872, 0.29394807
424169900.407846, 0.40538025, -0.11604309, 0.89274597, 0.63925720, 0.98800640, 0.46311413, -182.73928833, 143.04309082, 196.70417786, 0.51697105, -0.17804238, 0.83728242, -0.07319970, 0.05023476, 0.02792145, 0.00000000, 0.00000000, 0.00000000, 0.49515986, 0.82064481, -0.05980233, 0.27889510
424169900.423058, 0.31140137, 0.00730896, 1.02540588, 0.42761765, 1.15255380, -0.49538525, -183.08149719, 140.98985291, 194.37435913, 0.50003374, -0.17271228, 0.84860873, -0.09465349, 0.05666919, 0.04413727, 0.00000000, 0.00000000, 0.00000000, 0.50030909, 0.82097209, -0.05862758, 0.26880933
424169900.438966, 0.97442627, -0.27870178, 0.83638000, 0.58558092, 2.31262358, -0.57562549, -183.08149719, 140.98985291, 194.37435913, 0.48654607, -0.16644074, 0.85765404, -0.17514469, 0.17374970, 0.16775186, 0.00000000, 0.00000000, 0.00000000, 0.50209241, 0.82263614, -0.05779920, 0.26044624
424169900.454205, 0.85571289, -0.31773376, 0.84799194, 0.56999237, 1.51778690, 0.18492165, -181.37045288, 142.35868835, 194.04151917, 0.46158335, -0.15316668, 0.87377387, 0.51284289, -0.12553510, -0.03739386, 0.00000000, 0.00000000, 0.00000000, 0.49866511, 0.82959028, -0.05502794, 0.24512240
424169900.470501, 0.44306946, -0.06379700, 0.89669800, 0.88346295, 1.72329586, 0.66765156, -180.51493835, 141.16094971, 192.21093750, 0.43769038, -0.14574359, 0.88723499, 0.45777166, 0.00536273, -0.13342030, 0.00000000, 0.00000000, 0.00000000, 0.50029061, 0.83266248, -0.05172496, 0.23174777
424169900.486368, 0.44306946, -0.06379700, 0.89669800, 1.09159005, 2.07823611, 0.67807783, -180.17272949, 141.50315857, 192.87660217, 0.41331229, -0.13924287, 0.89988023, 0.19317880, 0.02127717, -0.07326582, 0.00000000, 0.00000000, 0.00000000, 0.50628866, 0.83283365, -0.04910266, 0.21828611
424169900.501790, 0.12576294, 0.13493347, 0.62274170, 1.57392661, 2.12501613, 0.93296312, -178.97499084, 139.96322632, 191.71170044, 0.38343000, -0.12872231, 0.91455561, 0.05963944, 0.06492531, -0.01785763, 0.00000000, 0.00000000, 0.00000000, 0.51325168, 0.83297691, -0.04678547, 0.20132885
424169900.517666, -0.08415222, -0.03073120, 1.33958435, 0.68490698, -0.36785152, 0.96702682, -177.94836426, 139.96322632, 191.04602051, 0.34941599, -0.11389360, 0.93001974, -0.22365305, 0.24882707, -0.30727804, 0.00000000, 0.00000000, 0.00000000, 0.52179298, 0.83231121, -0.04535078, 0.18147572
424169900.533230, 0.21641541, -0.00074768, 0.85531616, 0.09302741, 0.54132424, 0.80028390, -178.11947632, 141.50315857, 191.87811279, 0.34208906, -0.10474148, 0.93381172, -0.42624128, 0.07401028, 0.40577263, 0.00000000, 0.00000000, 0.00000000, 0.53021773, 0.82811534, -0.04894150, 0.17521094
424169900.550410, 0.36508179, -0.03868103, 0.45185852, -0.04727244, 1.27254838, 0.56894122, -178.63278198, 140.64764404, 191.71170044, 0.33481154, -0.10659973, 0.93623596, -0.26892409, 0.04525940, 0.19019839, 0.00000000, 0.00000000, 0.00000000, 0.53626482, 0.82494728, -0.04731267, 0.17217300
424169900.564819, 0.36508179, -0.03868103, 0.45185852, 0.32208616, 1.31188088, 0.45939209, -180.00161743, 141.67427063, 191.37886047, 0.31921411, -0.11021440, 0.94125187, -0.02690150, 0.07832353, -0.17552009, 0.00000000, 0.00000000, 0.00000000, 0.54087106, 0.82345883, -0.04218755, 0.16611521
424169900.581221, 0.45043945, -0.09489441, 0.27160645, 1.33644215, 1.06120125, 0.64852207, -178.97499084, 142.70088196, 192.37736511, 0.29707956, -0.11104465, 0.94837379, 0.06800224, 0.07236362, -0.49651527, 0.00000000, 0.00000000, 0.00000000, 0.54462736, 0.82314515, -0.03612848, 0.15654981
424169900.596489, 0.22010803, -0.03656006, 0.33937073, 1.78968899, 1.01597971, 0.72116618, -178.97499084, 142.70088196, 192.37736511, 0.28139645, -0.09883674, 0.95448798, 0.16904300, 0.00394234, -0.68288153, 0.00000000, 0.00000000, 0.00000000, 0.54991159, 0.82148721, -0.03763136, 0.14608177
424169900.612703, -0.01985168, 0.16296387, 0.97543335, 1.77520885, 0.37533048, 0.54621088, -176.75064087, 138.76548767, 191.87811279, 0.26203874, -0.07627120, 0.96203870, -0.04193070, 0.03971114, -0.62266797, 0.00000000, 0.00000000, 0.00000000, 0.55688002, 0.81908728, -0.04253299, 0.13104048
424169900.628230, -0.02479553, 0.15586853, 1.19940186, 1.55342453, -0.51693581, 0.26945331, -176.92173767, 137.90997314, 191.04602051, 0.25656328, -0.04893971, 0.96528763, -0.19642839, 0.15149403, -0.19883865, 0.00000000, 0.00000000, 0.00000000, 0.56302449, 0.81587207, -0.05318452, 0.12053048
424169900.643680, -0.02479553, 0.15586853, 1.19940186, 1.29031620, 1.17600294, -0.08910724, -174.18408203, 138.93659973, 191.37886047, 0.25730592, -0.02882660, 0.96589994, -0.23778993, 0.14236726, -0.40939665, 0.00000000, 0.00000000, 0.00000000, 0.56680634, 0.81343749, -0.06225850, 0.11477765
424169900.659959, 0.21650696, 0.03547668, 1.04640198, 1.04814430, 2.30474994, -0.30440091, -173.49966431, 137.90997314, 190.04753113, 0.25134388, -0.00616928, 0.96787816, -0.27613941, 0.16203780, 0.23152366, 0.00000000, 0.00000000, 0.00000000, 0.56865649, 0.81275390, -0.07008270, 0.10559033
424169900.675606, 0.32618713, 0.20086670, 0.92524719, 1.10467363, 3.76606718, -0.26893719, -173.49966431, 137.56776428, 191.04602051, 0.22182052, 0.01083511, 0.97502732, -0.00531356, 0.02464158, 0.07137467, 0.00000000, 0.00000000, 0.00000000, 0.56904315, 0.81468003, -0.06838011, 0.08837706
424169900.691451, 0.32243347, 0.22737122, 1.12727356, 1.19137364, 2.87114438, 0.05920633, -174.35517883, 139.44990540, 190.87960815, 0.16791821, 0.02773826, 0.98541063, 0.15826893, 0.17312844, -0.06016342, 0.00000000, 0.00000000, 0.00000000, 0.56960489, 0.81746901, -0.05959583, 0.06118033
424169900.708697, 0.08584595, 0.31135559, 1.36631775, 1.28588363, 1.90096891, 0.49558046, -173.15745544, 137.22555542, 191.37886047, 0.11904507, 0.04708036, 0.99177200, 0.25531405, 0.13349216, -0.02326615, 0.00000000, 0.00000000, 0.00000000, 0.57108316, 0.81838256, -0.05347720, 0.03541450
424169900.722903, 0.08584595, 0.31135559, 1.36631775, 0.88879113, 1.45672009, 0.60040727, -173.49966431, 138.93659973, 190.71319580, 0.08365847, 0.06499421, 0.99437267, 0.13109373, 0.22351897, 0.03661793, 0.00000000, 0.00000000, 0.00000000, 0.57468098, 0.81665666, -0.05072015, 0.01552835
424169900.739874, 0.01240540, 0.27369690, 1.39790344, 0.62303242, 1.15519965, 0.49366937, -170.93309021, 137.39665222, 190.54678345, 0.05933528, 0.08113491, 0.99493539, -0.02419429, 0.19169223, 0.31342947, 0.00000000, 0.00000000, 0.00000000, 0.57931601, 0.81354819, -0.05031794, 0.00063629
424169900.754573, 0.09590149, 0.15765381, 1.33180237, 0.50187297, 1.28851590, 0.42596196, -170.93309021, 137.39665222, 190.54678345, 0.04247806, 0.09164516, 0.99488533, -0.03007267, 0.18205173, 0.40301815, 0.00000000, 0.00000000, 0.00000000, 0.58323924, 0.81072477, -0.04966394, -0.00953089
424169900.770216, 0.07167053, 0.16461182, 1.31077576, 0.31912207, 0.96347709, 0.36508903, -169.56427002, 137.73886108, 189.54827881, 0.02234588, 0.09927434, 0.99480915, 0.07355560, 0.05837947, 0.33699322, 0.00000000, 0.00000000, 0.00000000, 0.58666838, 0.80822323, -0.04679418, -0.02014261
424169900.786211, 0.00152588, 0.15386963, 1.45295715, 0.34016956, 0.43662633, 0.31577660, -169.22206116, 136.71224976, 190.54678345, 0.00610691, 0.10500766, 0.99445266, 0.08170742, 0.05302762, 0.40956956, 0.00000000, 0.00000000, 0.00000000, 0.58953172, 0.80602648, -0.04424230, -0.02857075
424169900.801812, 0.00152588, 0.15386963, 1.45295715, 0.05839513, 0.08122961, 0.16490826, -169.22206116, 136.71224976, 190.21394348, -0.00234222, 0.11041699, 0.99388260, 0.03543853, 0.06159533, 0.39333969, 0.00000000, 0.00000000, 0.00000000, 0.59189815, 0.80411310, -0.04383478, -0.03372266
424169900.817159, -0.02917480, 0.14483643, 1.55868530, -0.26382765, 0.41446350, -0.03075019, -169.90646362, 136.02783203, 189.54827881, -0.00511525, 0.11252498, 0.99363571, -0.02241161, 0.03192998, 0.46414319, 0.00000000, 0.00000000, 0.00000000, 0.59345144, 0.80289056, -0.04379416, -0.03555569
424169900.833421, 0.06097412, 0.10926819, 1.45397949, -0.61067535, 0.77169753, -0.14130173, -170.41978455, 137.22555542, 189.38186646, -0.00855927, 0.10997545, 0.99389744, -0.02061554, 0.03486098, 0.56478786, 0.00000000, 0.00000000, 0.00000000, 0.59391290, 0.80263080, -0.04172041, -0.03620335
424169900.849413, 0.08671570, 0.11187744, 1.19415283, -0.64152808, 0.82907986, -0.13833790, -171.27529907, 138.76548767, 189.54827881, -0.01931028, 0.10211052, 0.99458563, 0.08028440, 0.00715767, 0.45939386, 0.00000000, 0.00000000, 0.00000000, 0.59365817, 0.80303349, -0.03536297, -0.03816610
424169900.865151, 0.05992126, 0.11309814, 1.09019470, -0.53699235, 0.24151569, -0.11563206, -171.27529907, 138.08106995, 191.54527283, -0.03260881, 0.09117422, 0.99530095, 0.12339860, 0.00327768, 0.32028136, 0.00000000, 0.00000000, 0.00000000, 0.59325952, 0.80355062, -0.02702230, -0.04024095
424169900.881797, 0.05992126, 0.11309814, 1.09019470, -0.42223114, -0.36226900, -0.06399390, -170.76199341, 139.27880859, 191.04602051, -0.04033132, 0.08227909, 0.99579293, 0.11104054, 0.03506099, 0.13929313, 0.00000000, 0.00000000, 0.00000000, 0.59286887, 0.80399190, -0.02116479, -0.04068897
424169900.896848, 0.01136780, 0.04261780, 1.11985779, -0.43036470, -0.49512799, -0.03719957, -170.76199341, 139.27880859, 191.04602051, -0.03700284, 0.07459439, 0.99652719, 0.07426479, 0.01888095, 0.10636281, 0.00000000, 0.00000000, 0.00000000, 0.59255714, 0.80444990, -0.01907370, -0.03704852
424169900.913291, -0.06744385, 0.06362915, 1.05880737, -0.54123263, -0.31539337, -0.14010518, -171.95971680, 138.42327881, 189.88111877, -0.02960879, 0.06802256, 0.99724436, 0.04097659, -0.02540476, 0.12261346, 0.00000000, 0.00000000, 0.00000000, 0.59246549, 0.80474021, -0.01862481, -0.03210844
424169900.928321, -0.03594971, 0.04551697, 0.88067627, -0.51920882, -0.36415772, -0.26871642, -169.05094910, 138.25218201, 189.38186646, -0.02348499, 0.05969136, 0.99794060, -0.04395886, 0.00393779, 0.06086680, 0.00000000, 0.00000000, 0.00000000, 0.59201253, 0.80528967, -0.01710032, -0.02715308
424169900.943640, 0.04165649, 0.04566956, 0.84098816, -0.34622266, -0.15403884, -0.30297505, -168.70874023, 138.25218201, 190.04753113, -0.01842086, 0.05105157, 0.99852610, -0.04862626, 0.01152472, -0.05408337, 0.00000000, 0.00000000, 0.00000000, 0.59075499, 0.80639420, -0.01515390, -0.02252332
424169900.959986, 0.04165649, 0.04566956, 0.84098816, -0.22177634, 0.14004472, -0.20249186, -170.76199341, 140.30543518, 189.04902649, -0.01436836, 0.04410863, 0.99892342, 0.01456672, 0.00018764, -0.13895331, 0.00000000, 0.00000000, 0.00000000, 0.58900436, 0.80779673, -0.01359121, -0.01880357
424169900.975827, 0.07244873, 0.03483582, 0.81303406, -0.19007700, 0.31715106, -0.03509673, -169.22206116, 138.76548767, 191.21244812, -0.01520445, 0.04014494, 0.99907815, 0.08869078, -0.01231291, -0.15366498, 0.00000000, 0.00000000, 0.00000000, 0.58756438, 0.80889257, -0.01177510, -0.01795153
424169900.991960, 0.03767395, 0.03135681, 0.76600647, -0.03787042, 0.44679055, 0.11297742, -170.59088135, 139.79211426, 188.88261414, -0.01928098, 0.03663732, 0.99914259, 0.09172971, -0.00180150, -0.18610854, 0.00000000, 0.00000000, 0.00000000, 0.58712998, 0.80922784, -0.00916768, -0.01856475
424169901.008449, -0.05349731, 0.18125916, 0.86215210, 0.03285036, 0.30506324, 0.09621868, -171.44641113, 140.30543518, 191.04602051, -0.02573106, 0.03514970, 0.99905074, 0.06340501, -0.00379289, -0.23304428, 0.00000000, 0.00000000, 0.00000000, 0.58770989, 0.80877838, -0.00665612, -0.02074412
424169901.022978, 0.20179749, -0.05957031, 0.44915771, -1.04393758, 0.15443778, 0.08013825, -172.64413452, 139.79211426, 190.21394348, -0.03179613, 0.03525404, 0.99887246, 0.01217332, 0.03569933, -0.21771400, 0.00000000, 0.00000000, 0.00000000, 0.58854311, 0.80811709, -0.00489076, -0.02323486
424169901.041141, -0.00209045, 0.13597107, 1.02304077, -0.44111295, -0.02337057, 0.17424344, -169.22206116, 139.44990540, 190.21394348, -0.02124101, 0.02151854, 0.99954277, 0.00352555, 0.23032777, 1.90493715, 0.00000000, 0.00000000, 0.00000000, 0.58904931, 0.80795563, -0.00243757, -0.01492205
424169901.054872, -0.00209045, 0.13597107, 1.02304077, -0.23092296, -0.04536242, 0.20167533, -169.22206116, 139.44990540, 190.21394348, -0.01571934, 0.01348178, 0.99978554, 0.10936253, -0.09523837, 0.06312644, 0.00000000, 0.00000000, 0.00000000, 0.59036819, 0.80706764, -0.00080034, -0.01032400
424169901.070286, -0.03414917, -0.02371216, 1.06663513, -0.05958397, -0.00434788, 0.19018166, -170.07757568, 139.96322632, 190.38035583, -0.01211028, 0.00869915, 0.99988884, 0.01001982, 0.12727192, 0.02315195, 0.00000000, 0.00000000, 0.00000000, 0.59169775, 0.80612541, 0.00007651, -0.00745525
424169901.086511, -0.09111023, -0.02442932, 1.06571960, -0.17311639, 0.01201032, 0.09150382, -170.59088135, 138.42327881, 188.88261414, -0.01101685, 0.00739947, 0.99991196, -0.02313232, -0.03111163, 0.06672320, 0.00000000, 0.00000000, 0.00000000, 0.59317024, 0.80504971, 0.00028898, -0.00662942
424169901.102013, -0.00566101, -0.20611572, 0.81077576, -0.11214465, -0.02396632, -0.01088194, -168.87985229, 138.76548767, 188.21694946, -0.01621003, 0.00317041, 0.99986356, -0.07490020, -0.02759973, 0.06585602, 0.00000000, 0.00000000, 0.00000000, 0.59406532, 0.80437440, 0.00354005, -0.00746169
424169901.117757, -0.00566101, -0.20611572, 0.81077576, 0.21560473, 0.03075978, 0.06910424, -169.39315796, 138.93659973, 190.38035583, -0.01577740, 0.00065060, 0.99987531, -0.07823200, -0.07212277, -0.02465559, 0.00000000, 0.00000000, 0.00000000, 0.59427505, 0.80422312, 0.00442672, -0.00653800
424169901.133715, -0.09030151, -0.01985168, 0.75485229, 0.41896398, 0.01200100, 0.04647189, -170.24867249, 140.13432312, 189.54827881, -0.01555204, 0.00227850, 0.99987644, -0.05395175, -0.09709661, -0.20478675, 0.00000000, 0.00000000, 0.00000000, 0.59463185, 0.80395970, 0.00370818, -0.00692947
424169901.149635, 0.01400757, 0.15039062, 1.65286255, -0.11369967, -0.10766042, 0.04473445, -169.90646362, 140.47653198, 190.21394348, -0.01568648, 0.00741183, 0.99984950, -0.07461503, -0.02726352, -0.24499719, 0.00000000, 0.00000000, 0.00000000, 0.59511117, 0.80359656, 0.00168967, -0.00850887
424169901.165212, 0.02825928, -0.00999451, 0.83140564, 0.05505260, 0.09412437, 0.17090836, -170.76199341, 139.96322632, 190.38035583, -0.01710903, 0.00989618, 0.99980468, 0.03111660, 0.14049444, 0.65305787, 0.00000000, 0.00000000, 0.00000000, 0.59540142, 0.80336758, 0.00111834, -0.00981948
424169901.181311, -0.02761841, 0.00885010, 1.01843262, 0.01872762, -0.02665904, 0.23834546, -170.93309021, 140.81874084, 190.87960815, -0.01638511, 0.00947722, 0.99982083, 0.04464439, -0.01947173, -0.16841520, 0.00000000, 0.00000000, 0.00000000, 0.59632185, 0.80268965, 0.00108186, -0.00940266
424169901.197834, -0.01286316, 0.06941223, 0.96664429, 0.01446842, 0.01099726, 0.28432121, -170.59088135, 138.42327881, 190.21394348, -0.01719802, 0.01003608, 0.99980175, 0.01655715, 0.04903070, 0.10229483, 0.00000000, 0.00000000, 0.00000000, 0.59786239, 0.80153692, 0.00111899, -0.00989350
424169901.213636, -0.01286316, 0.06941223, 0.96664429, 0.06012086, 0.07272827, 0.30328664, -170.59088135, 138.42327881, 190.21394348, -0.01636279, 0.00984434, 0.99981767, -0.00351942, -0.01365903, -0.03772049, 0.00000000, 0.00000000, 0.00000000, 0.59970588, 0.80016354, 0.00096798, -0.00949917
424169901.228398, -0.01113892, 0.07553101, 0.94943237, 0.02151488, 0.00858177, 0.27737089, -168.87985229, 140.47653198, 189.54827881, -0.01731399, 0.01022346, 0.99979782, 0.00445084, 0.05918877, -0.03315355, 0.00000000, 0.00000000, 0.00000000, 0.60173741, 0.79863071, 0.00112697, -0.00999067
424169901.243864, -0.03320312, 0.13388062, 0.98129272, -0.02056147, 0.01070964, 0.20597074, -169.56427002, 138.76548767, 189.21545410, -0.01720403, 0.01021072, 0.99979985, 0.00606511, 0.06532029, -0.05036749, 0.00000000, 0.00000000, 0.00000000, 0.60362446, 0.79720602, 0.00112248, -0.00994029
424169901.260076, -0.00675964, 0.08261108, 0.99993896, -0.04280392, 0.00102106, 0.12876064, -168.70874023, 139.27880859, 189.04902649, -0.01778919, 0.01612055, 0.99971181, -0.01541393, 0.11776007, -0.01841907, 0.00000000, 0.00000000, 0.00000000, 0.60515653, 0.79601600, -0.00103363, -0.01195969
424169901.276392, -0.07566833, 0.04594421, 0.99678040, -0.02649499, -0.01558828, 0.09955668, -170.24867249, 139.44990540, 190.54678345, -0.01772571, 0.01538175, 0.99972457, -0.00816845, 0.12242038, 0.00276262, 0.00000000, 0.00000000, 0.00000000, 0.60622999, 0.79520279, -0.00074298, -0.01171182
424169901.291664, -0.07566833, 0.04594421, 0.99678040, -0.00613113, -0.01273683, 0.01136158, -171.61750793, 139.44990540, 188.54977417, -0.01655089, 0.01658031, 0.99972552, 0.01337706, 0.03221730, -0.01057454, 0.00000000, 0.00000000, 0.00000000, 0.60700749, 0.79460976, -0.00156440, -0.01160953
424169901.308161, -0.01959229, 0.01466370, 0.98420715, -0.00793755, 0.00911840, -0.04299434, -171.10420227, 139.96322632, 190.04753113, -0.01622278, 0.01621000, 0.99973696, -0.05944556, 0.02973421, -0.00295660, 0.00000000, 0.00000000, 0.00000000, 0.60746769, 0.79426161, -0.00151028, -0.01136759
424169901.323306, -0.03080750, 0.00561523, 0.98994446, 0.00760359, 0.02060807, -0.05893469, -171.61750793, 140.13432312, 191.21244812, -0.01613699, 0.01588599, 0.99974358, -0.00345530, -0.00122229, -0.01553643, 0.00000000, 0.00000000, 0.00000000, 0.60733280, 0.79436683, -0.00140957, -0.01123483
424169901.339502, -0.01583862, 0.00526428, 0.99809265, -0.00468317, -0.01202604, -0.06193554, -171.44641113, 140.98985291, 191.04602051, -0.01704052, 0.01527218, 0.99973816, -0.01376698, -0.00965695, -0.00979370, 0.00000000, 0.00000000, 0.00000000, 0.60715823, 0.79449856, -0.00089384, -0.01140714
424169901.355342, -0.01396179, 0.01550293, 0.99119568, -0.00120055, -0.00835753, -0.03157710, -171.10420227, 138.93659973, 189.04902649, -0.01693279, 0.01505989, 0.99974322, 0.01108867, -0.00813240, 0.01003768, 0.00000000, 0.00000000, 0.00000000, 0.60686708, 0.79472256, -0.00084635, -0.01129956
424169901.370700, -0.01396179, 0.01550293, 0.99119568, 0.00793622, -0.02112739, -0.01190912, -171.10420227, 138.93659973, 189.04902649, -0.01664443, 0.01480522, 0.99975187, 0.03048415, -0.00650443, -0.01229458, 0.00000000, 0.00000000, 0.00000000, 0.60668673, 0.79486297, -0.00083518, -0.01110746
424169901.386776, 0.01867676, 0.02088928, 0.99951172, 0.00637774, -0.03124820, 0.04959152, -170.07757568, 138.59439087, 190.04753113, -0.01629536, 0.01475447, 0.99975836, 0.00233357, 0.00074846, -0.00856268, 0.00000000, 0.00000000, 0.00000000, 0.60670059, 0.79485443, -0.00092074, -0.01095331
424169901.402184, -0.00495911, -0.02842712, 0.98127747, 0.00421578, -0.00995996, 0.09298747, -167.68211365, 138.93659973, 190.04753113, -0.01574992, 0.01470298, 0.99976784, 0.03442667, 0.00618630, -0.00025614, 0.00000000, 0.00000000, 0.00000000, 0.60698594, 0.79463953, -0.00106192, -0.01072125
424169901.418359, -0.01394653, 0.00714111, 1.00283813, 0.01727886, 0.01017061, 0.15165424, -168.87985229, 137.73886108, 189.54827881, -0.01524078, 0.01459372, 0.99977732, 0.01028168, -0.04302085, -0.01849988, 0.00000000, 0.00000000, 0.00000000, 0.60760514, 0.79416916, -0.00116488, -0.01048666
424169901.433833, -0.06886292, 0.03654480, 0.98318481, 0.01533049, 0.02987721, 0.12752147, -169.73536682, 140.30543518, 190.04753113, -0.01522822, 0.01462574, 0.99977708, 0.05256647, -0.01778430, -0.02751755, 0.00000000, 0.00000000, 0.00000000, 0.60854369, 0.79345014, -0.00116901, -0.01049278
424169901.450225, -0.06886292, 0.03654480, 0.98318481, 0.03349032, 0.03968030, 0.02894457, -171.27529907, 141.50315857, 189.54827881, -0.01545327, 0.01471365, 0.99977231, -0.02174766, 0.00059091, -0.01146056, 0.00000000, 0.00000000, 0.00000000, 0.60955594, 0.79267126, -0.00112186, -0.01061029
424169901.465422, -0.01953125, 0.01388550, 0.99919128, 0.03100026, 0.02432558, -0.00276223, -172.13082886, 140.64764404, 190.71319580, -0.01588356, 0.01498976, 0.99976146, -0.07774436, 0.02570543, -0.00240125, 0.00000000, 0.00000000, 0.00000000, 0.61010943, 0.79224190, -0.00109253, -0.01086581
424169901.481651, -0.03826904, 0.01896667, 0.99185181, 0.04826021, 0.06606584, -0.03331002, -171.61750793, 140.81874084, 190.54678345, -0.01618261, 0.01532315, 0.99975163, -0.00334864, -0.00143765, -0.00056035, 0.00000000, 0.00000000, 0.00000000, 0.61017835, 0.79218571, -0.00113239, -0.01108612
424169901.497212, -0.01290894, 0.01234436, 0.98216248, 0.03319923, 0.01017674, -0.02392531, -169.05094910, 139.96322632, 191.04602051, -0.01672145, 0.01578324, 0.99973559, -0.02154759, 0.00318343, -0.00788380, 0.00000000, 0.00000000, 0.00000000, 0.61021232, 0.79215448, -0.00114972, -0.01144006
424169901.513075, -0.01364136, 0.01330566, 0.99166870, 0.02930010, -0.01316321, -0.02668354, -169.05094910, 139.96322632, 191.04602051, -0.01688802, 0.01610449, 0.99972767, 0.01157796, -0.00113562, 0.01662974, 0.00000000, 0.00000000, 0.00000000, 0.61016605, 0.79218762, -0.00122681, -0.01160403
424169901.528741, -0.01364136, 0.01330566, 0.99166870, 0.00351644, -0.00720172, -0.02918079, -170.07757568, 139.96322632, 189.38186646, -0.01645071, 0.01620849, 0.99973327, 0.00049002, -0.00677856, -0.00385317, 0.00000000, 0.00000000, 0.00000000, 0.61010593, 0.79223570, -0.00140232, -0.01146240
424169901.544066, -0.02070618, 0.01101685, 0.98518372, 0.00253426, 0.00686936, -0.01964507, -168.87985229, 138.42327881, 189.88111877, -0.01620165, 0.01616327, 0.99973810, 0.01003710, -0.00673334, 0.00334418, 0.00000000, 0.00000000, 0.00000000, 0.61004994, 0.79228033, -0.00146120, -0.01134981
424169901.560284, -0.01811218, 0.01486206, 0.99044800, 0.01766635, -0.00132732, -0.01031283, -169.39315796, 139.96322632, 188.71620178, -0.01642841, 0.01575205, 0.99974096, -0.00427776, -0.00473521, -0.01455724, 0.00000000, 0.00000000, 0.00000000, 0.61002548, 0.79230006, -0.00122946, -0.01131416
424169901.576184, -0.02066040, 0.01928711, 0.99775696, 0.02130050, 0.00687468, -0.00199125, -170.24867249, 138.76548767, 190.87960815, -0.01636692, 0.01579377, 0.99974132, -0.00174526, -0.00093171, -0.00929331, 0.00000000, 0.00000000, 0.00000000, 0.61007034, 0.79226563, -0.00126411, -0.01130259
424169901.592849, -0.01612854, 0.01481628, 0.99542236, 0.00827817, -0.00252255, -0.02323368, -171.61750793, 140.81874084, 190.21394348, -0.01629280, 0.01594642, 0.99974012, -0.00166679, 0.00256249, -0.00352427, 0.00000000, 0.00000000, 0.00000000, 0.61010279, 0.79224027, -0.00134673, -0.01131985
424169901.608722, -0.01612854, 0.01481628, 0.99542236, 0.00592926, -0.00251695, -0.02442172, -171.44641113, 141.33206177, 191.04602051, -0.01639658, 0.01617160, 0.99973476, -0.00907033, 0.00006376, -0.00448026, 0.00000000, 0.00000000, 0.00000000, 0.61006331, 0.79226899, -0.00140484, -0.01142962
424169901.623472, -0.01504517, 0.01037598, 0.99339294, 0.00717908, 0.00455214, -0.01265188, -172.64413452, 139.44990540, 190.87960815, -0.01616617, 0.01593136, 0.99974239, 0.00083109, -0.00334286, -0.00682247, 0.00000000, 0.00000000, 0.00000000, 0.61002247, 0.79230283, -0.00138054, -0.01126495
424169901.639788, -0.01507568, 0.01159668, 0.99340820, 0.01770230, -0.00139150, -0.02078864, -171.95971680, 139.79211426, 190.87960815, -0.01605152, 0.01555489, 0.99975014, 0.00100635, -0.00517891, -0.00635722, 0.00000000, 0.00000000, 0.00000000, 0.61001414, 0.79231170, -0.00126649, -0.01110464
424169901.655073, -0.01831055, 0.01460266, 0.99594116, 0.01077329, 0.00802038, -0.01488414, -170.24867249, 139.10769653, 189.88111877, -0.01573837, 0.01515632, 0.99976128, 0.00066269, -0.00355964, -0.00635306, 0.00000000, 0.00000000, 0.00000000, 0.60997201, 0.79234764, -0.00120470, -0.01085889
424169901.670814, -0.01768494, 0.01753235, 0.99346924, 0.00363655, 0.00099070, -0.02555117, -170.24867249, 139.10769653, 189.88111877, -0.01558588, 0.01527776, 0.99976182, 0.00163935, 0.00019465, -0.00307296, 0.00000000, 0.00000000, 0.00000000, 0.60996849, 0.79235052, -0.00129938, -0.01083551
424169901.686735, -0.01768494, 0.01753235, 0.99346924, 0.00581022, -0.01191205, -0.03389139, -168.53764343, 137.05444336, 190.21394348, -0.01580686, 0.01537922, 0.99975675, -0.00435000, 0.00345012, -0.00726411, 0.00000000, 0.00000000, 0.00000000, 0.60995099, 0.79236241, -0.00127241, -0.01095400
424169901.702380, -0.01788330, 0.01557922, 0.99320984, 0.01883148, -0.00611675, -0.02900289, -170.24867249, 139.44990540, 188.88261414, -0.01584407, 0.01548442, 0.99975455, -0.00383977, 0.00305501, -0.00553765, 0.00000000, 0.00000000, 0.00000000, 0.60987739, 0.79241836, -0.00130376, -0.01100071
424169901.718418, -0.01509094, 0.01161194, 0.99017334, 0.01996385, -0.00604458, -0.01618696, -169.22206116, 139.44990540, 190.54678345, -0.01576117, 0.01560215, 0.99975407, -0.00212213, -0.00002292, -0.00654421, 0.00000000, 0.00000000, 0.00000000, 0.60982621, 0.79245758, -0.00137640, -0.01100368
424169901.734042, -0.01596069, 0.00967407, 0.99639893, 0.00474842, -0.00250337, -0.02327017, -169.90646362, 141.16094971, 190.21394348, -0.01573312, 0.01541201, 0.99975747, 0.00064218, -0.00380007, -0.00958410, 0.00000000, 0.00000000, 0.00000000, 0.60983785, 0.79244969, -0.00130945, -0.01093459
424169901.750543, -0.01388550, 0.01278687, 0.99314880, 0.00599824, 0.00456546, -0.01150033, -170.59088135, 139.44990540, 190.87960815, -0.01543111, 0.01523357, 0.99976486, 0.00305623, -0.00418621, -0.00663134, 0.00000000, 0.00000000, 0.00000000, 0.60978271, 0.79249447, -0.00133161, -0.01076038
424169901.765725, -0.01388550, 0.01278687, 0.99314880, 0.02118491, -0.00612953, -0.02897865, -172.30192566, 141.50315857, 192.87660217, -0.01543534, 0.01496746, 0.99976885, -0.00070845, 0.00032185, -0.00681840, 0.00000000, 0.00000000, 0.00000000, 0.60978137, 0.79249675, -0.00122488, -0.01068090
424169901.781600, -0.02145386, 0.01222229, 0.99494934, 0.00258273, 0.01038500, -0.01725808, -170.41978455, 140.30543518, 190.04753113, -0.01534891, 0.01504804, 0.99976897, -0.00210715, 0.00297259, -0.00803922, 0.00000000, 0.00000000, 0.00000000, 0.60979178, 0.79248878, -0.00128303, -0.01067124
424169901.797070, -0.02105713, 0.01565552, 0.99522400, 0.00822837, -0.00483550, -0.01978116, -171.44641113, 138.25218201, 190.04753113, -0.01551955, 0.01496797, 0.99976754, -0.00593431, -0.00274568, -0.00481818, 0.00000000, 0.00000000, 0.00000000, 0.60979709, 0.79248424, -0.00119919, -0.01071446
424169901.814088, -0.01580811, 0.01161194, 0.99340820, 0.01296480, -0.00251216, -0.01736514, -169.56427002, 139.79211426, 189.54827881, -0.01565676, 0.01504005, 0.99976432, -0.00540037, 0.00061547, -0.00454030, 0.00000000, 0.00000000, 0.00000000, 0.60978672, 0.79249120, -0.00118605, -0.01079081
424169901.828957, -0.01394653, 0.00643921, 0.99635315, 0.01305109, 0.00333854, -0.01493874, -169.56427002, 139.79211426, 189.54827881, -0.01557339, 0.01492181, 0.99976736, -0.00023472, -0.00330987, -0.00635917, 0.00000000, 0.00000000, 0.00000000, 0.60972380, 0.79254059, -0.00116547, -0.01072161
424169901.844434, -0.01394653, 0.00643921, 0.99635315, 0.01413712, -0.00611275, -0.03254330, -169.73536682, 138.93659973, 190.71319580, -0.01553977, 0.01483992, 0.99976909, -0.00217568, -0.00512007, -0.00835982, 0.00000000, 0.00000000, 0.00000000, 0.60972664, 0.79253895, -0.00114323, -0.01068332
424169901.860655, -0.01512146, 0.01354980, 0.99642944, 0.01541065, 0.00091267, -0.02775733, -169.56427002, 139.10769653, 188.54977417, -0.01526360, 0.01459063, 0.99977702, -0.00028510, -0.00346698, -0.00687238, 0.00000000, 0.00000000, 0.00000000, 0.60964862, 0.79260147, -0.00112969, -0.01049773
424169901.876513, -0.02130127, 0.01565552, 0.99298096, 0.00832957, 0.00218965, -0.01617125, -170.07757568, 139.27880859, 190.38035583, -0.01512954, 0.01460841, 0.99977881, 0.00000809, -0.00105860, -0.00334938, 0.00000000, 0.00000000, 0.00000000, 0.60959335, 0.79264454, -0.00117833, -0.01044993
424169901.892256, -0.01763916, 0.01582336, 0.99397278, 0.01880458, -0.00726990, -0.02669446, -170.59088135, 139.44990540, 189.88111877, -0.01529359, 0.01468639, 0.99977517, -0.00600768, 0.00096913, -0.00679423, 0.00000000, 0.00000000, 0.00000000, 0.60956577, 0.79266460, -0.00115959, -0.01053869
424169901.908695, -0.01683044, 0.01359558, 0.99617004, 0.01528122, -0.00606215, -0.02321957, -170.59088135, 142.18757629, 190.21394348, -0.01524416, 0.01471206, 0.99977559, -0.00239500, 0.00111131, -0.00580278, 0.00000000, 0.00000000, 0.00000000, 0.60954682, 0.79267929, -0.00118509, -0.01052689
424169901.924405, -0.01628113, 0.01162720, 0.99641418, 0.01404445, -0.00955063, -0.02212687, -171.27529907, 140.81874084, 190.87960815, -0.01519172, 0.01482338, 0.99977469, -0.00385124, -0.00043435, -0.00358941, 0.00000000, 0.00000000, 0.00000000, 0.60952733, 0.79269401, -0.00124546, -0.01054001
424169901.939871, -0.01628113, 0.01162720, 0.99641418, 0.01064599, -0.00496227, -0.03838015, -171.10420227, 139.96322632, 190.38035583, -0.01521465, 0.01486736, 0.99977374, -0.00385883, 0.00074238, -0.00357315, 0.00000000, 0.00000000, 0.00000000, 0.60954199, 0.79268242, -0.00125571, -0.01056253
424169901.955260, -0.01879883, 0.01339722, 0.99418640, 0.01416589, -0.00256143, -0.02433650, -169.73536682, 138.93659973, 190.71319580, -0.01503057, 0.01476089, 0.99977809, -0.00125056, -0.00313369, -0.00336389, 0.00000000, 0.00000000, 0.00000000, 0.60946172, 0.79274551, -0.00127068, -0.01045697
424169901.971326, -0.02027893, 0.01393127, 0.99246216, 0.01419545, -0.00021225, -0.02196921, -169.73536682, 138.93659973, 190.71319580, -0.01507904, 0.01462940, 0.99977928, -0.00371979, -0.00123218, -0.00559288, 0.00000000, 0.00000000, 0.00000000, 0.60946234, 0.79274542, -0.00120378, -0.01043610
424169901.987397, -0.01918030, 0.01904297, 0.99174500, 0.00828749, -0.00373934, -0.03140107, -169.22206116, 139.10769653, 191.87811279, -0.01511608, 0.01469380, 0.99977779, -0.00516285, -0.00076252, -0.00731562, 0.00000000, 0.00000000, 0.00000000, 0.60939364, 0.79279775, -0.00121892, -0.01047032
424169902.002947, -0.01808167, 0.01509094, 0.99618530, 0.01293071, -0.00845527, -0.03492310, -169.22206116, 138.76548767, 189.21545410, -0.01503844, 0.01471965, 0.99977857, -0.00113588, 0.00180562, -0.00533276, 0.00000000, 0.00000000, 0.00000000, 0.60939202, 0.79279925, -0.00125285, -0.01044741
424169902.018750, -0.01808167, 0.01509094, 0.99618530, 0.00957406, 0.00686696, -0.01375230, -169.22206116, 140.13432312, 189.88111877, -0.01499860, 0.01480192, 0.99977797, -0.00383075, -0.00019926, -0.00708691, 0.00000000, 0.00000000, 0.00000000, 0.60934989, 0.79283143, -0.00129816, -0.01045662
424169902.034272, -0.01478577, 0.00988770, 0.99215698, 0.01176878, -0.00727469, -0.03375157, -172.13082886, 139.96322632, 191.71170044, -0.01499489, 0.01476309, 0.99977857, -0.00308678, 0.00032786, -0.00359328, 0.00000000, 0.00000000, 0.00000000, 0.60935800, 0.79282540, -0.00128379, -0.01044332
424169902.051072, -0.01707458, 0.01313782, 0.99217224, 0.01294696, -0.00488237, -0.02322436, -170.93309021, 141.84536743, 191.54527283, -0.01483605, 0.01474510, 0.99978119, 0.00005028, -0.00485741, -0.00762423, 0.00000000, 0.00000000, 0.00000000, 0.60929431, 0.79287518, -0.00132590, -0.01037476
424169902.065877, -0.01885986, 0.01559448, 0.99270630, 0.01293231, -0.00605656, -0.02440787, -172.30192566, 140.81874084, 191.87811279, -0.01478778, 0.01464683, 0.99978340, -0.00228680, -0.00150901, -0.00761113, 0.00000000, 0.00000000, 0.00000000, 0.60925813, 0.79290366, -0.00130211, -0.01032561
424169902.082474, -0.01547241, 0.01748657, 0.99320984, 0.01643383, -0.00962759, -0.03257818, -170.41978455, 139.96322632, 190.71319580, -0.01468435, 0.01460466, 0.99978554, -0.00141368, -0.00100908, -0.00785741, 0.00000000, 0.00000000, 0.00000000, 0.60923678, 0.79292074, -0.00131719, -0.01027171
424169902.097431, -0.01547241, 0.01748657, 0.99320984, 0.01526098, -0.00962839, -0.03375450, -171.27529907, 139.79211426, 190.87960815, -0.01467282, 0.01471115, 0.99978411, -0.00224918, 0.00182938, -0.00533832, 0.00000000, 0.00000000, 0.00000000, 0.60920020, 0.79294841, -0.00136340, -0.01029952
424169902.113430, -0.01483154, 0.01161194, 0.99118042, 0.00941161, -0.00725472, -0.03261174, -169.05094910, 138.93659973, 189.71469116, -0.01451013, 0.01478709, 0.99978536, -0.00096229, 0.00269948, -0.00657554, 0.00000000, 0.00000000, 0.00000000, 0.60914450, 0.79299159, -0.00144379, -0.01025804
424169902.129285, -0.01823425, 0.01094055, 0.99441528, 0.00942706, -0.00247860, -0.01507349, -169.05094910, 138.93659973, 189.71469116, -0.01436105, 0.01475600, 0.99978799, -0.00047049, -0.00314406, -0.00860757, 0.00000000, 0.00000000, 0.00000000, 0.60905143, 0.79306390, -0.00147807, -0.01018928
424169902.144435, -0.01899719, 0.01243591, 0.99443054, 0.01412115, -0.00608426, -0.02788756, -170.41978455, 138.93659973, 192.04452515, -0.01441339, 0.01466595, 0.99978858, -0.00382087, -0.00372540, -0.00537328, 0.00000000, 0.00000000, 0.00000000, 0.60905381, 0.79306225, -0.00142639, -0.01018261
424169902.160555, -0.01759338, 0.01435852, 0.99319458, 0.01411316, -0.00606988, -0.02555969, -168.02432251, 139.62101746, 190.71319580, -0.01426945, 0.01464794, 0.99979091, -0.00349179, -0.00347850, -0.00713037, 0.00000000, 0.00000000, 0.00000000, 0.60899508, 0.79310808, -0.00146384, -0.01011992
424169902.176742, -0.01759338, 0.01435852, 0.99319458, 0.01182310, -0.00136673, -0.02201316, -169.56427002, 140.81874084, 191.54527283, -0.01422771, 0.01465190, 0.99979144, -0.00238911, -0.00032390, -0.00610856, 0.00000000, 0.00000000, 0.00000000, 0.60895325, 0.79314037, -0.00147866, -0.01010450
424169902.192270, -0.01446533, 0.01672363, 0.99368286, 0.01061003, -0.00489809, -0.02790434, -171.10420227, 139.27880859, 191.37886047, -0.01430235, 0.01464205, 0.99979049, -0.00434389, 0.00266141, -0.00606187, 0.00000000, 0.00000000, 0.00000000, 0.60892445, 0.79316220, -0.00145239, -0.01013105
424169902.209204, -0.01762390, 0.01533508, 0.99246216, 0.01063587, -0.00254225, -0.02437298, -170.24867249, 140.13432312, 191.21244812, -0.01415639, 0.01468359, 0.99979198, -0.00030894, 0.00204004, -0.00610911, 0.00000000, 0.00000000, 0.00000000, 0.60888362, 0.79319400, -0.00151383, -0.01008573
424169902.224132, -0.01463318, 0.01330566, 0.99366760, 0.01411316, -0.00606988, -0.02555969, -171.27529907, 140.47653198, 190.87960815, -0.01413117, 0.01476807, 0.99979109, -0.00349273, 0.00056701, -0.00732893, 0.00000000, 0.00000000, 0.00000000, 0.60883206, 0.79323330, -0.00155567, -0.01010135
424169902.240106, -0.01429749, 0.01036072, 0.99288940, 0.01650175, -0.00134223, -0.01381701, -170.76199341, 140.98985291, 192.04452515, -0.01406683, 0.01471205, 0.99979281, -0.00415217, -0.00448866, -0.00961948, 0.00000000, 0.00000000, 0.00000000, 0.60878872, 0.79326711, -0.00155359, -0.01005868
424169902.255457, -0.01429749, 0.01036072, 0.99288940, 0.01540426, 0.00332576, -0.01491423, -170.07757568, 137.22555542, 189.38186646, -0.01396338, 0.01464677, 0.99979520, -0.00282129, -0.00300431, -0.00438812, 0.00000000, 0.00000000, 0.00000000, 0.60877203, 0.79328068, -0.00155940, -0.00999773
424169902.271009, -0.01739502, 0.01605225, 0.99371338, 0.01529107, -0.00367756, -0.01503221, -170.93309021, 138.42327881, 191.54527283, -0.01400305, 0.01455917, 0.99979597, -0.00380396, -0.00192489, -0.00686077, 0.00000000, 0.00000000, 0.00000000, 0.60878294, 0.79327253, -0.00151244, -0.00998682
424169902.287333, -0.01890564, 0.01731873, 0.99147034, 0.00944144, -0.00490608, -0.03024446, -170.93309021, 138.42327881, 191.54527283, -0.01395226, 0.01462215, 0.99979573, -0.00344276, 0.00143009, -0.00608236, 0.00000000, 0.00000000, 0.00000000, 0.60879103, 0.79326625, -0.00155278, -0.00998587
424169902.302801, -0.01622009, 0.01823425, 0.99371338, 0.01065877, -0.00138165, -0.02551734, -170.07757568, 137.22555542, 191.37886047, -0.01392602, 0.01473225, 0.99979448, -0.00497961, 0.00258648, -0.00832416, 0.00000000, 0.00000000, 0.00000000, 0.60874678, 0.79329982, -0.00160500, -0.01000889
424169902.318648, -0.01518250, 0.01525879, 0.99343872, 0.01180313, -0.00133105, -0.01619335, -169.39315796, 138.25218201, 190.04753113, -0.01387305, 0.01477874, 0.99979454, -0.00425439, 0.00128876, -0.00708824, 0.00000000, 0.00000000, 0.00000000, 0.60870845, 0.79332924, -0.00164005, -0.01000195
424169902.334577, -0.01518250, 0.01525879, 0.99343872, 0.01179354, -0.00371564, -0.02438044, -169.56427002, 139.79211426, 191.21244812, -0.01391150, 0.01485906, 0.99979281, -0.00449060, 0.00148311, -0.01007724, 0.00000000, 0.00000000, 0.00000000, 0.60874321, 0.79330203, -0.00165977, -0.01004172
424169902.350606, -0.01806641, 0.01387024, 0.99369812, 0.01174747, -0.00603579, -0.02209199, -171.27529907, 139.79211426, 193.20944214, -0.01383774, 0.01482450, 0.99979436, -0.00419815, -0.00219023, -0.00585209, 0.00000000, 0.00000000, 0.00000000, 0.60868985, 0.79334346, -0.00166919, -0.01000183
424169902.366000, -0.01661682, 0.01432800, 0.99417114, 0.00826752, -0.00370366, -0.02558126, -170.41978455, 140.64764404, 192.71018982, -0.01374158, 0.01479690, 0.99979609, -0.00432483, -0.00092666, -0.00609797, 0.00000000, 0.00000000, 0.00000000, 0.60862202, 0.79339604, -0.00168836, -0.00995513
424169902.382310, -0.01684570, 0.01411438, 0.99243164, 0.01414458, -0.00132226, -0.01267718, -170.93309021, 140.81874084, 191.21244812, -0.01369837, 0.01480351, 0.99979657, -0.00291845, -0.00047551, -0.00562544, 0.00000000, 0.00000000, 0.00000000, 0.60857559, 0.79343182, -0.00170471, -0.00993990
424169902.397641, -0.01905823, 0.01461792, 0.99319458, 0.00824568, -0.00606695, -0.03027641, -170.24867249, 140.13432312, 191.54527283, -0.01366069, 0.01485375, 0.99979633, -0.00152180, 0.00066444, -0.00635763, 0.00000000, 0.00000000, 0.00000000, 0.60862068, 0.79339715, -0.00173555, -0.00994034
424169902.413759, -0.01905823, 0.01461792, 0.99319458, 0.01068966, -0.00023596, -0.02898957, -168.70874023, 138.25218201, 189.04902649, -0.01360488, 0.01482138, 0.99979758, -0.00372910, -0.00024923, -0.00410058, 0.00000000, 0.00000000, 0.00000000, 0.60857689, 0.79343114, -0.00174024, -0.00990825
424169902.429635, -0.01708984, 0.01409912, 0.99443054, 0.01298611, -0.00375053, -0.02902446, -168.87985229, 137.73886108, 189.21545410, -0.01366535, 0.01478463, 0.99979734, -0.00324138, 0.00126761, -0.00684688, 0.00000000, 0.00000000, 0.00000000, 0.60854824, 0.79345302, -0.00170761, -0.00992099
424169902.444528, -0.01605225, 0.01237488, 0.99441528, 0.01646233, -0.00607574, -0.02437139, -168.87985229, 137.73886108, 189.21545410, -0.01358316, 0.01481852, 0.99979794, -0.00350668, -0.00071940, -0.00536739, 0.00000000, 0.00000000, 0.00000000, 0.60848796, 0.79349945, -0.00174683, -0.00989856
424169902.460967, -0.01741028, 0.01678467, 0.99446106, 0.00717109, 0.00456626, -0.01032401, -169.56427002, 139.44990540, 189.54827881, -0.01350162, 0.01477962, 0.99979961, -0.00255063, -0.00240475, -0.00538433, 0.00000000, 0.00000000, 0.00000000, 0.60842251, 0.79355016, -0.00175702, -0.00985422
424169902.476421, -0.01931763, 0.01487732, 0.99444580, 0.01406176, -0.01078181, -0.03262213, -170.93309021, 139.79211426, 189.54827881, -0.01351570, 0.01463598, 0.99980152, -0.00229241, -0.00277990, -0.00463857, 0.00000000, 0.00000000, 0.00000000, 0.60842412, 0.79354953, -0.00169572, -0.00981610
424169902.494197, -0.01884460, 0.01510620, 0.99343872, 0.00939830, -0.00603020, -0.02328056, -170.76199341, 141.33206177, 189.04902649, -0.01341389, 0.01470343, 0.99980193, -0.00311138, -0.00380865, -0.00689726, 0.00000000, 0.00000000, 0.00000000, 0.60834829, 0.79360778, -0.00175439, -0.00979606
424169902.508847, -0.01884460, 0.01510620, 0.99343872, 0.01068700, 0.00216994, -0.01731081, -170.93309021, 140.13432312, 190.21394348, -0.01334490, 0.01471179, 0.99980271, -0.00188337, 0.00228650, -0.00608934, 0.00000000, 0.00000000, 0.00000000, 0.60827510, 0.79366414, -0.00177960, -0.00977106
424169902.524945, -0.01686096, 0.01434326, 0.99394226, 0.01297465, -0.00012730, -0.00917805, -171.10420227, 141.33206177, 190.04753113, -0.01330938, 0.01477785, 0.99980223, -0.00553522, 0.00032835, -0.00636350, 0.00000000, 0.00000000, 0.00000000, 0.60823905, 0.79369160, -0.00181707, -0.00977697
424169902.541023, -0.01683044, 0.01263428, 0.99092102, 0.01061802, -0.00491247, -0.03023220, -170.24867249, 140.47653198, 191.21244812, -0.01327918, 0.01481959, 0.99980199, -0.00358179, -0.00047633, -0.00585974, 0.00000000, 0.00000000, 0.00000000, 0.60825612, 0.79367846, -0.00184261, -0.00977772
424169902.555585, -0.01708984, 0.01409912, 0.99267578, 0.01764158, -0.00488637, -0.01968369, -170.24867249, 139.44990540, 188.88261414, -0.01315183, 0.01480659, 0.99980390, -0.00367862, -0.00217231, -0.00888286, 0.00000000, 0.00000000, 0.00000000, 0.60819039, 0.79372942, -0.00187699, -0.00972306
424169902.571355, -0.01708984, 0.01409912, 0.99267578, 0.00721690, 0.00688667, -0.01261246, -168.36653137, 137.22555542, 190.38035583, -0.01309613, 0.01475748, 0.99980533, -0.00341388, -0.00386270, -0.00415409, 0.00000000, 0.00000000, 0.00000000, 0.60819360, 0.79372741, -0.00187440, -0.00968602
424169902.587478, -0.01498413, 0.01626587, 0.99095154, 0.01302685, -0.00022024, -0.02430933, -168.36653137, 137.22555542, 190.38035583, -0.01320369, 0.01474052, 0.99980420, -0.00486272, -0.00112968, -0.00535837, 0.00000000, 0.00000000, 0.00000000, 0.60820661, 0.79371708, -0.00183479, -0.00972359
424169902.602986, -0.01980591, 0.01490784, 0.99122620, 0.01881017, -0.00487838, -0.01734357, -168.19543457, 139.44990540, 190.54678345, -0.01313501, 0.01480837, 0.99980408, -0.00184912, 0.00145750, -0.00885253, 0.00000000, 0.00000000, 0.00000000, 0.60818815, 0.79373119, -0.00188284, -0.00971692
424169902.618840, -0.01828003, 0.01289368, 0.99293518, 0.01656486, -0.00025353, -0.02660072, -170.07757568, 139.62101746, 190.71319580, -0.01316588, 0.01492471, 0.99980193, -0.00664003, -0.00001687, -0.00857574, 0.00000000, 0.00000000, 0.00000000, 0.60818530, 0.79373271, -0.00191966, -0.00976456
424169902.634632, -0.01705933, 0.01312256, 0.99615479, 0.01764957, -0.00490075, -0.02201156, -170.41978455, 139.62101746, 191.71170044, -0.01317534, 0.01492284, 0.99980181, -0.00510469, -0.00202916, -0.00686666, 0.00000000, 0.00000000, 0.00000000, 0.60811184, 0.79378896, -0.00191694, -0.00976756
424169902.651781, -0.01802063, 0.01214600, 0.99417114, 0.00828643, -0.00253666, -0.02556155, -171.44641113, 140.30543518, 189.71469116, -0.01306846, 0.01498134, 0.99980235, -0.00402138, -0.00112636, -0.00611951, 0.00000000, 0.00000000, 0.00000000, 0.60806826, 0.79382251, -0.00197320, -0.00974282
424169902.666420, -0.01802063, 0.01214600, 0.99417114, 0.00961055, 0.01040417, -0.00787337, -170.41978455, 140.98985291, 191.37886047, -0.01304451, 0.01496188, 0.99980295, -0.00476249, -0.00232760, -0.00586071, 0.00000000, 0.00000000, 0.00000000, 0.60796344, 0.79390298, -0.00197404, -0.00972713
424169902.682365, -0.01780701, 0.01263428, 0.99493408, 0.01416003, -0.00495295, -0.03368792, -170.24867249, 140.47653198, 190.87960815, -0.01313785, 0.01486089, 0.99980325, -0.00488278, -0.00271490, -0.00563211, 0.00000000, 0.00000000, 0.00000000, 0.60800889, 0.79386827, -0.00190502, -0.00973360
424169902.698056, -0.01736450, 0.01458740, 0.99044800, 0.01542609, 0.00568878, -0.01021908, -169.90646362, 140.13432312, 189.54827881, -0.01309831, 0.01491659, 0.99980295, -0.00470870, -0.00228231, -0.00486886, 0.00000000, 0.00000000, 0.00000000, 0.60797465, 0.79389439, -0.00193957, -0.00973475
424169902.714476, -0.01690674, 0.01606750, 0.99169922, 0.01064386, -0.00255637, -0.02670085, -170.41978455, 138.59439087, 190.71319580, -0.01322067, 0.01494498, 0.99980092, -0.00414383, -0.00035758, -0.00935291, 0.00000000, 0.00000000, 0.00000000, 0.60797783, 0.79389131, -0.00191360, -0.00979197
424169902.729714, -0.01562500, 0.01383972, 0.99168396, 0.02348162, -0.00964437, -0.02901328, -169.56427002, 138.08106995, 190.21394348, -0.01316902, 0.01495488, 0.99980146, -0.00538567, -0.00105412, -0.00735455, 0.00000000, 0.00000000, 0.00000000, 0.60791250, 0.79394151, -0.00193404, -0.00977431
424169902.745033, -0.01562500, 0.01383972, 0.99168396, 0.01060204, -0.00488370, -0.02557647, -171.44641113, 139.62101746, 189.38186646, -0.01311376, 0.01502714, 0.99980110, -0.00397608, -0.00117216, -0.00611823, 0.00000000, 0.00000000, 0.00000000, 0.60785878, 0.79398253, -0.00198018, -0.00977421
424169902.761183, -0.01489258, 0.01429749, 0.99642944, 0.01076929, 0.00802757, -0.01372034, -171.44641113, 139.62101746, 189.38186646, -0.01294250, 0.01503911, 0.99980313, -0.00268250, -0.00119939, -0.00811918, 0.00000000, 0.00000000, 0.00000000, 0.60776875, 0.79405208, -0.00203810, -0.00970962
424169902.776923, -0.01779175, 0.01240540, 0.99293518, 0.01530599, -0.00250337, -0.01384870, -171.27529907, 139.44990540, 191.87811279, -0.01300896, 0.01497044, 0.99980330, -0.00188362, -0.00067295, -0.00337386, 0.00000000, 0.00000000, 0.00000000, 0.60775530, 0.79406244, -0.00199080, -0.00971510
424169902.792646, -0.01643372, 0.01628113, 0.99319458, 0.01527616, -0.00485228, -0.01621599, -171.78862000, 139.96322632, 190.38035583, -0.01309069, 0.01492324, 0.99980295, -0.00470106, -0.00251784, -0.00686777, 0.00000000, 0.00000000, 0.00000000, 0.60772152, 0.79408817, -0.00194763, -0.00973312
424169902.809199, -0.01438904, 0.01380920, 0.99217224, 0.01415204, -0.00493857, -0.03135979, -170.41978455, 141.33206177, 192.37736511, -0.01309902, 0.01494382, 0.99980253, -0.00504368, 0.00161197, -0.00608915, 0.00000000, 0.00000000, 0.00000000, 0.60772979, 0.79408171, -0.00195317, -0.00974271
424169902.824708, -0.01438904, 0.01380920, 0.99217224, 0.01528015, -0.00485947, -0.01738006, -171.27529907, 141.16094971, 191.21244812, -0.01304604, 0.01497718, 0.99980271, -0.00625633, -0.00058814, -0.00685228, 0.00000000, 0.00000000, 0.00000000, 0.60761972, 0.79416600, -0.00198386, -0.00973154
424169902.841165, -0.01684570, 0.01411438, 0.99119568, 0.01759311, -0.00840227, -0.02207068, -170.07757568, 140.30543518, 190.04753113, -0.01289579, 0.01501672, 0.99980408, -0.00149325, -0.00120752, -0.00763184, 0.00000000, 0.00000000, 0.00000000, 0.60758852, 0.79419030, -0.00204560, -0.00968380
424169902.855813, -0.01269531, 0.01448059, 0.99516296, 0.01180712, -0.00133824, -0.01735742, -168.87985229, 139.10769653, 190.21394348, -0.01279274, 0.01504453, 0.99980497, -0.00405296, -0.00093015, -0.00860931, 0.00000000, 0.00000000, 0.00000000, 0.60754939, 0.79422052, -0.00208843, -0.00965122
424169902.871596, -0.01637268, 0.01434326, 0.99168396, 0.01414112, -0.00611994, -0.03370763, -168.70874023, 138.59439087, 190.04753113, -0.01261533, 0.01504498, 0.99980724, -0.00007998, -0.00056439, -0.00464427, 0.00000000, 0.00000000, 0.00000000, 0.60752305, 0.79424137, -0.00214283, -0.00958082
424169902.887640, -0.01951599, 0.01290894, 0.99342346, 0.01306440, 0.00211428, -0.02427019, -168.70874023, 138.93659973, 189.04902649, -0.01252273, 0.01504873, 0.99980831, -0.00456711, -0.00145315, -0.00687316, 0.00000000, 0.00000000, 0.00000000, 0.60747705, 0.79427690, -0.00217300, -0.00954505
424169902.903575, -0.01951599, 0.01290894, 0.99342346, 0.01294190, -0.00367197, -0.01622078, -168.70874023, 138.93659973, 189.04902649, -0.01257577, 0.01502074, 0.99980807, -0.00623831, -0.00089110, -0.00562169, 0.00000000, 0.00000000, 0.00000000, 0.60739689, 0.79433813, -0.00214674, -0.00955740
424169902.919510, -0.01658630, 0.01336670, 0.99192810, 0.01185559, 0.00217793, -0.01497043, -169.90646362, 139.79211426, 191.87811279, -0.01253647, 0.01500176, 0.99980885, -0.00697952, -0.00209283, -0.00638541, 0.00000000, 0.00000000, 0.00000000, 0.60738731, 0.79434570, -0.00215125, -0.00953600
424169902.934815, -0.01686096, 0.01435852, 0.99142456, 0.01416748, -0.00016219, -0.01382154, -171.27529907, 140.47653198, 188.54977417, -0.01249213, 0.01508477, 0.99980819, -0.00409418, -0.00171807, -0.00788008, 0.00000000, 0.00000000, 0.00000000, 0.60734825, 0.79437534, -0.00219816, -0.00954349
424169902.950911, -0.01708984, 0.01409912, 0.99342346, 0.01287985, -0.00956554, -0.02563106, -170.76199341, 140.98985291, 191.37886047, -0.01254748, 0.01507395, 0.99980766, -0.00431348, -0.00071543, -0.00838309, 0.00000000, 0.00000000, 0.00000000, 0.60734157, 0.79438028, -0.00217713, -0.00956217
424169902.966371, -0.01560974, 0.01309204, 0.99340820, 0.01645807, -0.00606855, -0.02320758, -171.44641113, 139.96322632, 191.04602051, -0.01241228, 0.01509426, 0.99980903, -0.00426558, 0.00143101, -0.00611091, 0.00000000, 0.00000000, 0.00000000, 0.60731481, 0.79440118, -0.00222658, -0.00951456
424169902.982752, -0.01560974, 0.01309204, 0.99340820, 0.01416988, -0.00256835, -0.02550057, -170.24867249, 140.13432312, 190.54678345, -0.01238654, 0.01507268, 0.99980968, -0.00273492, -0.00175176, -0.00612681, 0.00000000, 0.00000000, 0.00000000, 0.60729062, 0.79441988, -0.00222611, -0.00949771
424169902.998058, -0.01687622, 0.01509094, 0.99218750, 0.02358549, -0.00142319, -0.02072765, -170.07757568, 138.93659973, 190.04753113, -0.01235882, 0.01509184, 0.99980974, -0.00427326, -0.00051970, -0.00937699, 0.00000000, 0.00000000, 0.00000000, 0.60722981, 0.79446638, -0.00224287, -0.00949235
424169903.014567, -0.01664734, 0.01554871, 0.99444580, 0.01291340, -0.00722409, -0.02442758, -168.53764343, 138.76548767, 189.21545410, -0.01232088, 0.01519552, 0.99980861, -0.00455535, -0.00010458, -0.00762113, 0.00000000, 0.00000000, 0.00000000, 0.60721096, 0.79448044, -0.00229581, -0.00950870
424169903.029846, -0.01513672, 0.01380920, 0.99542236, 0.01408599, -0.00722329, -0.02325153, -169.73536682, 139.62101746, 191.04602051, -0.01233298, 0.01519879, 0.99980843, -0.00431436, 0.00034992, -0.00536263, 0.00000000, 0.00000000, 0.00000000, 0.60717678, 0.79450650, -0.00229384, -0.00951440
424169903.045191, -0.01727295, 0.01190186, 0.99192810, 0.01768339, -0.00255903, -0.02080834, -170.07757568, 140.30543518, 190.04753113, -0.01216663, 0.01521327, 0.99981022, -0.00316845, -0.00262477, -0.00515082, 0.00000000, 0.00000000, 0.00000000, 0.60714264, 0.79453316, -0.00235051, -0.00945261
424169903.061362, -0.01727295, 0.01190186, 0.99192810, 0.01652864, -0.00018935, -0.01612517, -170.07757568, 140.30543518, 190.04753113, -0.01211712, 0.01522939, 0.99981058, -0.00449970, -0.00090138, -0.00563946, 0.00000000, 0.00000000, 0.00000000, 0.60711579, 0.79455379, -0.00237226, -0.00943775
424169903.077222, -0.01586914, 0.01382446, 0.99467468, 0.01072189, 0.00330845, -0.02194684, -169.56427002, 141.16094971, 190.21394348, -0.01215154, 0.01520499, 0.99981058, -0.00588434, -0.00231131, -0.00838600, 0.00000000, 0.00000000, 0.00000000, 0.60708152, 0.79457996, -0.00235252, -0.00944392
424169903.092982, -0.01754761, 0.01289368, 0.99218750, 0.00840121, 0.00686590, -0.01492835, -171.10420227, 139.96322632, 190.04753113, -0.01213162, 0.01516835, 0.99981135, -0.00373753, -0.00134388, -0.00513667, 0.00000000, 0.00000000, 0.00000000, 0.60704842, 0.79460549, -0.00234441, -0.00942477
424169903.108990, -0.01560974, 0.01309204, 0.99366760, 0.01295122, -0.00488956, -0.02438816, -171.61750793, 140.47653198, 191.21244812, -0.01214729, 0.01515108, 0.99981141, -0.00540032, -0.00225740, -0.00762393, 0.00000000, 0.00000000, 0.00000000, 0.60703659, 0.79461456, -0.00233293, -0.00942572
424169903.124660, -0.01838684, 0.01657104, 0.99470520, 0.01407960, -0.00841159, -0.02676290, -171.95971680, 139.79211426, 191.54527283, -0.01207018, 0.01524357, 0.99981093, -0.00483656, 0.00080867, -0.00536515, 0.00000000, 0.00000000, 0.00000000, 0.60702470, 0.79462349, -0.00239323, -0.00942313
424169903.142680, -0.01608276, 0.01408386, 0.99642944, 0.01414005, -0.00491726, -0.02786785, -170.41978455, 140.64764404, 190.71319580, -0.01201668, 0.01523203, 0.99981177, -0.00466118, 0.00155263, -0.00860084, 0.00000000, 0.00000000, 0.00000000, 0.60693678, 0.79469091, -0.00240592, -0.00939810
424169903.156122, -0.01608276, 0.01408386, 0.99642944, 0.00242507, -0.00014141, -0.02092712, -170.24867249, 138.76548767, 188.21694946, -0.01208635, 0.01521363, 0.99981123, -0.00575118, -0.00160279, -0.00712017, 0.00000000, 0.00000000, 0.00000000, 0.60688070, 0.79473356, -0.00237813, -0.00942003
424169903.171899, -0.01904297, 0.01390076, 0.99494934, 0.01404045, -0.00954344, -0.02096307, -168.53764343, 138.76548767, 189.54827881, -0.01199222, 0.01513540, 0.99981356, -0.00409054, -0.00105154, -0.00338409, 0.00000000, 0.00000000, 0.00000000, 0.60681774, 0.79478236, -0.00237635, -0.00935869
424169903.187894, -0.01803589, 0.01287842, 0.99443054, 0.00477425, -0.00014701, -0.01973882, -169.39315796, 138.93659973, 189.71469116, -0.01204743, 0.01519985, 0.99981189, -0.00699554, -0.00129909, -0.00486255, 0.00000000, 0.00000000, 0.00000000, 0.60680497, 0.79479159, -0.00238536, -0.00940015
424169903.203563, -0.01686096, 0.01457214, 0.99443054, 0.01301194, -0.00139443, -0.02549311, -169.56427002, 139.10769653, 191.54527283, -0.01201980, 0.01521526, 0.99981201, -0.00729783, -0.00033794, -0.00562559, 0.00000000, 0.00000000, 0.00000000, 0.60674179, 0.79483986, -0.00240062, -0.00939366
424169903.221168, -0.01635742, 0.01408386, 0.99342346, 0.01291340, -0.00722409, -0.02442758, -171.10420227, 140.98985291, 191.04602051, -0.01210612, 0.01518486, 0.99981141, -0.00863057, -0.00172661, -0.00809694, 0.00000000, 0.00000000, 0.00000000, 0.60671938, 0.79485678, -0.00236261, -0.00941868
424169903.235130, -0.01635742, 0.01408386, 0.99342346, 0.01185826, -0.00022797, -0.02664919, -171.10420227, 140.98985291, 191.04602051, -0.01215252, 0.01520008, 0.99981064, -0.00786701, -0.00103992, -0.00560896, 0.00000000, 0.00000000, 0.00000000, 0.60669965, 0.79487159, -0.00235481, -0.00944168
424169903.251979, -0.01638794, 0.01506042, 0.99517822, 0.01291740, -0.00723101, -0.02559165, -171.44641113, 139.62101746, 191.37886047, -0.01205656, 0.01522877, 0.99981135, -0.00430086, -0.00114491, -0.00638788, 0.00000000, 0.00000000, 0.00000000, 0.60664425, 0.79491410, -0.00239599, -0.00941208
424169903.266641, -0.01684570, 0.01409912, 0.99517822, 0.01529613, -0.00488797, -0.02203579, -172.81524658, 141.67427063, 191.04602051, -0.01210969, 0.01518127, 0.99981141, -0.00427825, -0.00012084, -0.00463320, 0.00000000, 0.00000000, 0.00000000, 0.60659353, 0.79495283, -0.00236159, -0.00941864
424169903.282772, -0.01660156, 0.01359558, 0.99192810, 0.01179860, -0.00492578, -0.03138402, -170.41978455, 138.93659973, 190.04753113, -0.01197956, 0.01522901, 0.99981225, -0.00442364, -0.00039747, -0.00887599, 0.00000000, 0.00000000, 0.00000000, 0.60655249, 0.79498441, -0.00242052, -0.00938126
424169903.298652, -0.01660156, 0.01359558, 0.99192810, 0.01074266, 0.00687468, -0.01141218, -169.05094910, 138.93659973, 190.71319580, -0.01196793, 0.01523867, 0.99981225, -0.00606796, -0.00236025, -0.00513758, 0.00000000, 0.00000000, 0.00000000, 0.60649151, 0.79503093, -0.00242861, -0.00937938
424169903.314763, -0.01971436, 0.01145935, 0.99269104, 0.01057754, -0.00844249, -0.03494733, -168.53764343, 138.76548767, 190.54678345, -0.01199898, 0.01527243, 0.99981135, -0.00463310, -0.00019674, -0.00861569, 0.00000000, 0.00000000, 0.00000000, 0.60647749, 0.79504135, -0.00243278, -0.00940192
424169903.329738, -0.01655579, 0.01239014, 0.99191284, 0.01294696, -0.00488237, -0.02322436, -169.39315796, 138.25218201, 191.04602051, -0.01195363, 0.01525147, 0.99981225, -0.00776072, -0.00379212, -0.00712119, 0.00000000, 0.00000000, 0.00000000, 0.60643885, 0.79507109, -0.00243866, -0.00937742
424169903.345177, -0.01611328, 0.01432800, 0.99542236, 0.01768632, -0.00136301, -0.01613263, -169.22206116, 137.05444336, 189.54827881, -0.01188311, 0.01529333, 0.99981242, -0.00467267, -0.00290320, -0.00789959, 0.00000000, 0.00000000, 0.00000000, 0.60638774, 0.79511013, -0.00247729, -0.00936192
424169903.361418, -0.01831055, 0.01362610, 0.99343872, 0.01177170, -0.00607867, -0.02907586, -169.22206116, 137.05444336, 189.54827881, -0.01190995, 0.01534063, 0.99981141, -0.00420333, -0.00101263, -0.00438903, 0.00000000, 0.00000000, 0.00000000, 0.60640997, 0.79509285, -0.00248769, -0.00938700
424169903.377290, -0.01831055, 0.01362610, 0.99343872, 0.01298211, -0.00374334, -0.02786039, -170.76199341, 140.64764404, 189.71469116, -0.01178027, 0.01532812, 0.99981314, -0.00379895, -0.00322790, -0.00640492, 0.00000000, 0.00000000, 0.00000000, 0.60635444, 0.79513574, -0.00252269, -0.00933146
424169903.393176, -0.01802063, 0.01242065, 0.99168396, 0.01291100, -0.00481792, -0.01274855, -170.24867249, 141.84536743, 191.54527283, -0.01182295, 0.01535101, 0.99981225, -0.00573992, -0.00219793, -0.00838770, 0.00000000, 0.00000000, 0.00000000, 0.60631063, 0.79516888, -0.00251937, -0.00935524
424169903.409080, -0.01530457, 0.01185608, 0.99291992, 0.00595083, -0.00015340, -0.01972657, -171.10420227, 140.30543518, 190.71319580, -0.01180129, 0.01532209, 0.99981296, -0.00621934, -0.00290143, -0.00812900, 0.00000000, 0.00000000, 0.00000000, 0.60631882, 0.79516286, -0.00251434, -0.00933788
424169903.424901, -0.01608276, 0.01335144, 0.99342346, 0.01525832, -0.00722249, -0.02207521, -170.07757568, 142.35868835, 190.71319580, -0.01181869, 0.01515760, 0.99981529, -0.00348587, -0.00330153, -0.00689534, 0.00000000, 0.00000000, 0.00000000, 0.60628038, 0.79519289, -0.00244411, -0.00929481
424169903.441623, -0.01855469, 0.01388550, 0.99319458, 0.01526923, -0.00604058, -0.01972763, -170.59088135, 138.76548767, 190.21394348, -0.01179206, 0.01512889, 0.99981600, -0.00429070, -0.00177745, -0.00639255, 0.00000000, 0.00000000, 0.00000000, 0.60622455, 0.79523569, -0.00244142, -0.00927534
424169903.456545, -0.01634216, 0.01312256, 0.99241638, 0.00594284, -0.00013928, -0.01739870, -169.90646362, 138.76548767, 190.21394348, -0.01173306, 0.01511490, 0.99981689, -0.00553989, -0.00347244, -0.00688174, 0.00000000, 0.00000000, 0.00000000, 0.60621813, 0.79524087, -0.00245382, -0.00924761
424169903.472100, -0.01634216, 0.01312256, 0.99241638, 0.01644742, -0.00725019, -0.02555516, -168.53764343, 138.08106995, 190.87960815, -0.01178550, 0.01502570, 0.99981767, -0.00528908, -0.00190314, -0.00665359, 0.00000000, 0.00000000, 0.00000000, 0.60616490, 0.79528167, -0.00240307, -0.00924126
424169903.487770, -0.01727295, 0.01139832, 0.99317932, 0.00241309, -0.00012011, -0.01743518, -168.02432251, 138.93659973, 190.04753113, -0.01173020, 0.01500109, 0.99981868, -0.00461197, -0.00187853, -0.00740229, 0.00000000, 0.00000000, 0.00000000, 0.60616602, 0.79528114, -0.00241004, -0.00921181
424169903.503542, -0.01591492, 0.01553345, 0.99269104, 0.00011239, 0.00340139, -0.01623649, -168.53764343, 139.44990540, 189.21545410, -0.01174986, 0.01493253, 0.99981946, -0.00552309, -0.00353421, -0.00664014, 0.00000000, 0.00000000, 0.00000000, 0.60615461, 0.79529008, -0.00237694, -0.00919881
424169903.520431, -0.01806641, 0.01435852, 0.99569702, 0.00828509, -0.00133344, -0.01972204, -170.59088135, 140.13432312, 189.88111877, -0.01175857, 0.01487730, 0.99982017, -0.00415635, 0.00065615, -0.00712914, 0.00000000, 0.00000000, 0.00000000, 0.60613329, 0.79530656, -0.00235259, -0.00918547
424169903.535617, -0.01860046, 0.01608276, 0.99620056, 0.01061403, -0.00490528, -0.02906840, -170.59088135, 140.13432312, 189.88111877, -0.01175537, 0.01484743, 0.99982065, -0.00513611, 0.00045714, -0.00513072, 0.00000000, 0.00000000, 0.00000000, 0.60612499, 0.79531304, -0.00234178, -0.00917512
424169903.551346, -0.01860046, 0.01608276, 0.99620056, 0.00939830, -0.00603020, -0.02328056, -171.44641113, 140.64764404, 191.37886047, -0.01170687, 0.01486595, 0.99982095, -0.00315520, -0.00204857, -0.00615336, 0.00000000, 0.00000000, 0.00000000, 0.60608125, 0.79534647, -0.00236435, -0.00916132
424169903.566839, -0.01829529, 0.01339722, 0.99319458, 0.01073014, 0.00329406, -0.02427471, -171.44641113, 140.98985291, 191.71170044, -0.01165838, 0.01492754, 0.99982059, -0.00694209, 0.00115523, -0.00362005, 0.00000000, 0.00000000, 0.00000000, 0.60607463, 0.79535140, -0.00240361, -0.00916067
424169903.582840, -0.01289368, 0.01303101, 0.99639893, 0.00717322, 0.00216036, -0.02200304, -170.24867249, 138.76548767, 190.54678345, -0.01171124, 0.01489695, 0.99982047, -0.00658404, -0.00149973, -0.00662587, 0.00000000, 0.00000000, 0.00000000, 0.60604128, 0.79537676, -0.00237581, -0.00917233
424169903.598995, -0.01730347, 0.01286316, 0.99317932, 0.01076130, 0.00804168, -0.01139247, -169.90646362, 138.42327881, 190.21394348, -0.01171758, 0.01483900, 0.99982125, -0.00117610, -0.00180799, -0.00342231, 0.00000000, 0.00000000, 0.00000000, 0.60601806, 0.79539470, -0.00235111, -0.00915722
424169903.614851, -0.01687622, 0.01530457, 0.99594116, 0.00827418, -0.00251536, -0.02206962, -168.70874023, 137.90997314, 189.71469116, -0.01172293, 0.01487051, 0.99982071, -0.00417673, -0.00006949, -0.00664138, 0.00000000, 0.00000000, 0.00000000, 0.60603440, 0.79538208, -0.00236183, -0.00916895
424169903.630041, -0.01687622, 0.01530457, 0.99594116, 0.01173415, -0.00841319, -0.02911527, -169.56427002, 138.08106995, 189.21545410, -0.01180358, 0.01491073, 0.99981916, -0.00726991, 0.00021073, -0.00712812, 0.00000000, 0.00000000, 0.00000000, 0.60603495, 0.79538118, -0.00235338, -0.00921322
424169903.645478, -0.01568604, 0.01577759, 0.99343872, 0.02351278, -0.00489675, -0.01613077, -168.19543457, 139.79211426, 191.54527283, -0.01166458, 0.01495660, 0.99982011, -0.00521164, 0.00034796, -0.00387894, 0.00000000, 0.00000000, 0.00000000, 0.60597688, 0.79542572, -0.00241442, -0.00917166
424169903.661870, -0.01441956, 0.01524353, 0.99568176, 0.00953971, 0.00092332, -0.03131025, -170.93309021, 139.10769653, 191.54527283, -0.01161763, 0.01503770, 0.99981946, -0.00406840, 0.00073989, -0.00638071, 0.00000000, 0.00000000, 0.00000000, 0.60594579, 0.79544919, -0.00246126, -0.00917746
424169903.677089, -0.01805115, 0.01338196, 0.99418640, 0.01186358, 0.00216355, -0.01729856, -170.93309021, 139.10769653, 191.54527283, -0.01166334, 0.01505627, 0.99981862, -0.00275622, 0.00018726, -0.00413686, 0.00000000, 0.00000000, 0.00000000, 0.60589335, 0.79548888, -0.00245540, -0.00920111
424169903.693146, -0.01953125, 0.01318359, 0.99243164, 0.00941214, -0.00365279, -0.01625727, -170.93309021, 140.13432312, 189.88111877, -0.01166025, 0.01510128, 0.99981797, -0.00594839, -0.00025448, -0.00537218, 0.00000000, 0.00000000, 0.00000000, 0.60585567, 0.79551738, -0.00247468, -0.00921340
424169903.709152, -0.01953125, 0.01318359, 0.99243164, 0.01301593, -0.00140162, -0.02665691, -172.13082886, 139.62101746, 191.04602051, -0.01164783, 0.01499785, 0.99981970, -0.00416027, -0.00338591, -0.00641148, 0.00000000, 0.00000000, 0.00000000, 0.60582673, 0.79553995, -0.00243763, -0.00917703
424169903.725151, -0.01341248, 0.01448059, 0.99667358, 0.01415310, -0.00614125, -0.03719930, -169.73536682, 139.62101746, 191.04602051, -0.01166975, 0.01505056, 0.99981862, -0.00395525, -0.00098195, -0.00639517, 0.00000000, 0.00000000, 0.00000000, 0.60578797, 0.79556914, -0.00245240, -0.00920160
424169903.741791, -0.01733398, 0.01387024, 0.99244690, 0.01412807, -0.00489596, -0.02437591, -170.07757568, 139.27880859, 191.04602051, -0.01150665, 0.01510566, 0.99981970, -0.00190582, -0.00062507, -0.00314611, 0.00000000, 0.00000000, 0.00000000, 0.60570354, 0.79563375, -0.00252470, -0.00915314
424169903.756535, -0.01638794, 0.01506042, 0.99467468, 0.01303085, -0.00022717, -0.02547340, -171.44641113, 138.93659973, 189.71469116, -0.01149534, 0.01509096, 0.99982005, -0.00583865, -0.00122072, -0.00737314, 0.00000000, 0.00000000, 0.00000000, 0.60565057, 0.79567419, -0.00252289, -0.00914402
424169903.772053, -0.01710510, 0.01457214, 0.99342346, 0.00945795, -0.00133238, -0.01854599, -169.39315796, 138.25218201, 189.71469116, -0.01142804, 0.01513720, 0.99982011, -0.00499041, 0.00016737, -0.01036394, 0.00000000, 0.00000000, 0.00000000, 0.60559795, 0.79571426, -0.00256227, -0.00913108
424169903.788195, -0.01710510, 0.01457214, 0.99342346, 0.02117692, -0.00611515, -0.02665052, -169.73536682, 138.93659973, 188.71620178, -0.01147470, 0.01509853, 0.99982017, -0.00587455, -0.00075526, -0.00586265, 0.00000000, 0.00000000, 0.00000000, 0.60556462, 0.79573964, -0.00253314, -0.00913782
424169903.803736, -0.01560974, 0.01333618, 0.99267578, 0.01059379, -0.00486959, -0.02324860, -169.39315796, 139.27880859, 189.71469116, -0.01146590, 0.01511206, 0.99982005, -0.00678361, -0.00317969, -0.00813610, 0.00000000, 0.00000000, 0.00000000, 0.60551587, 0.79577671, -0.00254175, -0.00913827
424169903.820138, -0.01551819, 0.00988770, 0.99490356, 0.00482512, 0.00096273, -0.02903112, -171.10420227, 140.30543518, 190.38035583, -0.01137240, 0.01506207, 0.99982190, -0.00423734, -0.00172589, -0.00714610, 0.00000000, 0.00000000, 0.00000000, 0.60544378, 0.79583213, -0.00255099, -0.00908569
424169903.835323, -0.01383972, 0.01181030, 0.99589539, 0.01295788, -0.00370046, -0.02087679, -171.10420227, 140.30543518, 190.38035583, -0.01135426, 0.01491278, 0.99982435, -0.00416392, -0.00502508, -0.00492076, 0.00000000, 0.00000000, 0.00000000, 0.60539085, 0.79587316, -0.00249768, -0.00903310
424169903.852071, -0.01658630, 0.01358032, 0.99592590, 0.01768738, -0.00256622, -0.02197214, -172.13082886, 141.33206177, 190.71319580, -0.01134040, 0.01485374, 0.99982536, -0.00426934, -0.00174644, -0.00864495, 0.00000000, 0.00000000, 0.00000000, 0.60540966, 0.79585918, -0.00247817, -0.00900976
424169903.867091, -0.01658630, 0.01358032, 0.99592590, 0.00474043, -0.00248899, -0.02094230, -172.30192566, 141.50315857, 191.54527283, -0.01127616, 0.01483148, 0.99982643, -0.00238046, -0.00176996, -0.00892066, 0.00000000, 0.00000000, 0.00000000, 0.60539374, 0.79587161, -0.00248894, -0.00897741
424169903.883008, -0.01655579, 0.01239014, 0.99140930, 0.01651906, -0.00257421, -0.02431226, -171.78862000, 138.93659973, 189.71469116, -0.01130737, 0.01478199, 0.99982679, -0.00584351, 0.00127026, -0.00638808, 0.00000000, 0.00000000, 0.00000000, 0.60537979, 0.79588235, -0.00245995, -0.00897480
424169903.898808, -0.01828003, 0.01266479, 0.99218750, 0.01531105, -0.00371325, -0.02085229, -169.39315796, 137.90997314, 190.71319580, -0.01125607, 0.01476669, 0.99982762, -0.00529971, -0.00237655, -0.00841831, 0.00000000, 0.00000000, 0.00000000, 0.60532488, 0.79592437, -0.00247000, -0.00894958
424169903.915237, -0.01611328, 0.01432800, 0.99467468, 0.02120542, -0.00256356, -0.01844399, -169.56427002, 137.39665222, 189.54827881, -0.01130677, 0.01474734, 0.99982733, -0.00697326, -0.00208255, -0.00763982, 0.00000000, 0.00000000, 0.00000000, 0.60530386, 0.79594026, -0.00244720, -0.00896384
424169903.930196, -0.01797485, 0.01068115, 0.99291992, 0.01409558, -0.00844009, -0.03141891, -168.53764343, 137.73886108, 190.21394348, -0.01127327, 0.01483346, 0.99982643, -0.00609123, 0.00025748, -0.00788307, 0.00000000, 0.00000000, 0.00000000, 0.60530991, 0.79593538, -0.00249154, -0.00897660
424169903.945679, -0.01797485, 0.01068115, 0.99291992, 0.01657019, 0.00213799, -0.01725009, -169.73536682, 138.59439087, 190.38035583, -0.01130625, 0.01481646, 0.99982631, -0.00608877, 0.00099165, -0.00611293, 0.00000000, 0.00000000, 0.00000000, 0.60527653, 0.79596072, -0.00247517, -0.00898447
424169903.961799, -0.01756287, 0.01339722, 0.99244690, 0.00947233, -0.00375985, -0.03371695, -170.59088135, 139.44990540, 191.54527283, -0.01145472, 0.01478514, 0.99982506, -0.00644384, 0.00128236, -0.00562342, 0.00000000, 0.00000000, 0.00000000, 0.60527294, 0.79596307, -0.00241781, -0.00903408
424169903.977963, -0.01881409, 0.01362610, 0.99269104, 0.00946993, -0.00135395, -0.02203766, -171.61750793, 139.44990540, 189.54827881, -0.01138596, 0.01475341, 0.99982631, -0.00617691, -0.00135620, -0.00737943, 0.00000000, 0.00000000, 0.00000000, 0.60518122, 0.79603320, -0.00242703, -0.00899683
424169903.994307, -0.01806641, 0.01387024, 0.99444580, 0.00958445, 0.00444668, -0.02775919, -171.61750793, 139.44990540, 189.54827881, -0.01144576, 0.01471603, 0.99982619, -0.00736832, -0.00108993, -0.00713516, 0.00000000, 0.00000000, 0.00000000, 0.60516249, 0.79604740, -0.00239426, -0.00900926
424169904.009560, -0.01806641, 0.01362610, 0.99143982, 0.00831332, -0.00138351, -0.02786971, -171.44641113, 141.33206177, 190.38035583, -0.01144357, 0.01471958, 0.99982619, -0.00647025, 0.00183621, -0.00536511, 0.00000000, 0.00000000, 0.00000000, 0.60511028, 0.79608708, -0.00239693, -0.00900930
424169904.025258, -0.01806641, 0.01362610, 0.99143982, 0.01525832, -0.00722249, -0.02207521, -170.76199341, 139.62101746, 190.38035583, -0.01150416, 0.01479733, 0.99982435, -0.00639440, 0.00102604, -0.00711803, 0.00000000, 0.00000000, 0.00000000, 0.60507427, 0.79611387, -0.00240995, -0.00905685
424169904.042028, -0.01657104, 0.01284790, 0.99366760, 0.00475827, -0.00011851, -0.01508281, -170.07757568, 140.64764404, 190.04753113, -0.01147572, 0.01485191, 0.99982387, -0.00515636, -0.00003563, -0.00565271, 0.00000000, 0.00000000, 0.00000000, 0.60506467, 0.79612102, -0.00244040, -0.00906201
424169904.056773, -0.01908875, 0.01513672, 0.99095154, 0.00944250, -0.00610876, -0.03608423, -170.76199341, 139.62101746, 190.38035583, -0.01139584, 0.01474307, 0.99982637, -0.00517520, -0.00189517, -0.00615877, 0.00000000, 0.00000000, 0.00000000, 0.60504142, 0.79613948, -0.00242150, -0.00899721
424169904.072421, -0.01640320, 0.01530457, 0.99194336, 0.01189847, 0.00330205, -0.02193459, -169.39315796, 138.25218201, 189.38186646, -0.01140804, 0.01477962, 0.99982572, -0.00768070, 0.00035710, -0.00887416, 0.00000000, 0.00000000, 0.00000000, 0.60496867, 0.79619455, -0.00243319, -0.00901290
424169904.088273, -0.01658630, 0.01335144, 0.99267578, 0.01291340, -0.00722409, -0.02442758, -168.36653137, 139.27880859, 189.71469116, -0.01151509, 0.01469644, 0.99982572, -0.00488811, 0.00060812, -0.00788233, 0.00000000, 0.00000000, 0.00000000, 0.60492403, 0.79622846, -0.00236819, -0.00903022
424169904.104196, -0.01658630, 0.01335144, 0.99267578, 0.00596335, 0.00342669, -0.00686430, -169.56427002, 140.13432312, 189.88111877, -0.01146817, 0.01471946, 0.99982589, -0.00908542, 0.00043251, -0.00661606, 0.00000000, 0.00000000, 0.00000000, 0.60486604, 0.79627258, -0.00239221, -0.00901833
424169904.119928, -0.01927185, 0.01414490, 0.99594116, 0.01645407, -0.00606135, -0.02204352, -171.95971680, 141.16094971, 190.54678345, -0.01151773, 0.01459166, 0.99982721, -0.00525168, -0.00342223, -0.00792961, 0.00000000, 0.00000000, 0.00000000, 0.60485495, 0.79628141, -0.00232646, -0.00899937
424169904.135989, -0.01690674, 0.01582336, 0.99244690, 0.00833623, -0.00022344, -0.02901407, -171.61750793, 140.13432312, 190.87960815, -0.01145370, 0.01465489, 0.99982703, -0.00781815, -0.00050999, -0.00388585, 0.00000000, 0.00000000, 0.00000000, 0.60481673, 0.79631038, -0.00237143, -0.00899289
424169904.151792, -0.01959229, 0.01560974, 0.99496460, 0.01645940, -0.00727176, -0.02904710, -171.61750793, 140.13432312, 190.87960815, -0.01152648, 0.01466895, 0.99982595, -0.00538026, 0.00115441, -0.00737907, 0.00000000, 0.00000000, 0.00000000, 0.60475419, 0.79635756, -0.00235573, -0.00902594
424169904.166890, -0.01364136, 0.01329041, 0.99316406, 0.01409984, -0.00484589, -0.01622824, -170.93309021, 140.81874084, 191.21244812, -0.01154260, 0.01473886, 0.99982476, -0.00804968, 0.00087088, -0.00486015, 0.00000000, 0.00000000, 0.00000000, 0.60470094, 0.79639761, -0.00237929, -0.00905334
424169904.183991, -0.01635742, 0.01431274, 0.99691772, 0.00949017, -0.00138964, -0.02785746, -170.24867249, 138.08106995, 190.87960815, -0.01148635, 0.01474284, 0.99982536, -0.00603074, -0.00308513, -0.00614248, 0.00000000, 0.00000000, 0.00000000, 0.60468022, 0.79641352, -0.00239812, -0.00903208
424169904.198867, -0.01635742, 0.01431274, 0.99691772, 0.01181645, -0.00255557, -0.02552480, -170.07757568, 138.59439087, 188.38336182, -0.01152610, 0.01470768, 0.99982542, -0.00582315, -0.00036442, -0.00687496, 0.00000000, 0.00000000, 0.00000000, 0.60465985, 0.79642901, -0.00237233, -0.00903722
424169904.214735, -0.01847839, 0.01190186, 0.99668884, 0.02353569, -0.00373642, -0.01727513, -168.70874023, 138.93659973, 188.71620178, -0.01142072, 0.01473458, 0.99982619, -0.00493671, -0.00042184, -0.00290849, 0.00000000, 0.00000000, 0.00000000, 0.60460969, 0.79646734, -0.00241548, -0.00900323
424169904.230645, -0.01904297, 0.01364136, 0.99519348, 0.00128071, 0.00340938, -0.01389664, -169.56427002, 137.39665222, 190.87960815, -0.01144586, 0.01484497, 0.99982429, -0.00703254, -0.00294311, -0.00313545, 0.00000000, 0.00000000, 0.00000000, 0.60458156, 0.79648810, -0.00245216, -0.00904654
424169904.245805, -0.01582336, 0.01210022, 0.99441528, 0.00951148, 0.00097312, -0.02316258, -170.93309021, 138.08106995, 191.21244812, -0.01156284, 0.01476685, 0.99982411, -0.00748013, -0.00112549, -0.00463062, 0.00000000, 0.00000000, 0.00000000, 0.60461926, 0.79645942, -0.00238525, -0.00906962
424169904.262539, -0.01513672, 0.01380920, 0.99368286, 0.01530306, -0.00369886, -0.01852442, -170.59088135, 137.73886108, 192.54377747, -0.01154466, 0.01484866, 0.99982309, -0.00681166, 0.00050168, -0.00736094, 0.00000000, 0.00000000, 0.00000000, 0.60459134, 0.79648030, -0.00242364, -0.00908704
424169904.277818, -0.01513672, 0.01380920, 0.99368286, 0.00721397, 0.00569038, -0.01728818, -172.47303772, 139.62101746, 190.71319580, -0.01158831, 0.01481513, 0.99982309, -0.00432661, 0.00024530, -0.00888682, 0.00000000, 0.00000000, 0.00000000, 0.60455625, 0.79650693, -0.00239749, -0.00909418
424169904.293975, -0.01829529, 0.01341248, 0.99244690, 0.01058314, -0.00605070, -0.02559617, -172.47303772, 139.62101746, 190.71319580, -0.01154791, 0.01477255, 0.99982417, -0.00358881, -0.00096335, -0.00614133, 0.00000000, 0.00000000, 0.00000000, 0.60454607, 0.79651500, -0.00239287, -0.00906518
424169904.309959, -0.01658630, 0.01336670, 0.99243164, 0.00949284, -0.00019388, -0.02318202, -171.27529907, 141.50315857, 192.87660217, -0.01155106, 0.01476718, 0.99982423, -0.00674423, -0.00135470, -0.00737734, 0.00000000, 0.00000000, 0.00000000, 0.60448569, 0.79656084, -0.00239046, -0.00906463
424169904.325265, -0.01657104, 0.01284790, 0.99540710, 0.01652864, -0.00018935, -0.01612517, -170.93309021, 140.81874084, 190.21394348, -0.01152482, 0.01480521, 0.99982399, -0.00506149, -0.00143851, -0.00739234, 0.00000000, 0.00000000, 0.00000000, 0.60442305, 0.79660829, -0.00241426, -0.00906549
424169904.342235, -0.01780701, 0.01287842, 0.99417114, 0.01293737, -0.00726670, -0.03141145, -169.22206116, 140.13432312, 190.87960815, -0.01149001, 0.01489410, 0.99982303, -0.00884996, 0.00097504, -0.00583502, 0.00000000, 0.00000000, 0.00000000, 0.60439959, 0.79662580, -0.00246045, -0.00907841
424169904.357123, -0.01780701, 0.01287842, 0.99417114, 0.00706537, -0.00605337, -0.02912460, -169.22206116, 139.79211426, 190.21394348, -0.01150477, 0.01495241, 0.99982202, -0.00634801, -0.00036500, -0.00687158, 0.00000000, 0.00000000, 0.00000000, 0.60436374, 0.79665267, -0.00247963, -0.00910181
424169904.372608, -0.01737976, 0.01580811, 0.99571228, 0.01650814, -0.00375532, -0.02665984, -168.02432251, 137.56776428, 188.71620178, -0.01138129, 0.01494489, 0.99982357, -0.00642572, -0.00206648, -0.00565240, 0.00000000, 0.00000000, 0.00000000, 0.60432055, 0.79668591, -0.00251444, -0.00905021
424169904.388667, -0.01708984, 0.01359558, 0.99517822, 0.01176638, -0.00486879, -0.02207228, -169.90646362, 139.10769653, 188.88261414, -0.01139357, 0.01490666, 0.99982399, -0.00598619, 0.00090145, -0.00411169, 0.00000000, 0.00000000, 0.00000000, 0.60425064, 0.79673907, -0.00249629, -0.00904333
424169904.404200, -0.01786804, 0.01484680, 0.99269104, 0.00709519, -0.00370446, -0.02675705, -170.59088135, 139.79211426, 190.54678345, -0.01141630, 0.01489487, 0.99982387, -0.00567354, -0.00129929, -0.00464567, 0.00000000, 0.00000000, 0.00000000, 0.60418759, 0.79678686, -0.00248545, -0.00904862
424169904.419960, -0.01617432, 0.01629639, 0.99244690, 0.01886637, -0.00497825, -0.03363919, -170.93309021, 140.47653198, 190.21394348, -0.01131616, 0.01487312, 0.99982536, -0.00522437, -0.00300179, -0.00690543, 0.00000000, 0.00000000, 0.00000000, 0.60414727, 0.79681790, -0.00250749, -0.00900202
424169904.436723, -0.01617432, 0.01629639, 0.99244690, 0.01415097, -0.00373535, -0.02552027, -172.64413452, 141.50315857, 191.54527283, -0.01131994, 0.01495612, 0.99982405, -0.00703638, 0.00065363, -0.00810959, 0.00000000, 0.00000000, 0.00000000, 0.60405956, 0.79688398, -0.00254041, -0.00902833
424169904.451975, -0.01757812, 0.01411438, 0.99468994, 0.01293897, -0.00486799, -0.02089649, -172.64413452, 141.50315857, 191.54527283, -0.01128664, 0.01510863, 0.99982214, -0.00537596, 0.00094362, -0.00787880, 0.00000000, 0.00000000, 0.00000000, 0.60397961, 0.79694398, -0.00261215, -0.00906087
424169904.467325, -0.01585388, 0.01309204, 0.99465942, 0.01068194, 0.00337982, -0.01030723, -172.81524658, 139.62101746, 190.04753113, -0.01130601, 0.01508508, 0.99982232, -0.00627211, -0.00097070, -0.00513235, 0.00000000, 0.00000000, 0.00000000, 0.60398418, 0.79694056, -0.00259686, -0.00906149
424169904.483702, -0.01658630, 0.01310730, 0.99392700, 0.00948618, -0.00138245, -0.02669340, -170.93309021, 140.81874084, 191.87811279, -0.01132418, 0.01504765, 0.99982268, -0.00452970, -0.00195561, -0.00516323, 0.00000000, 0.00000000, 0.00000000, 0.60395652, 0.79696163, -0.00257677, -0.00905733
424169904.499043, -0.01785278, 0.01458740, 0.99295044, 0.01411023, -0.00726617, -0.03023513, -169.05094910, 138.93659973, 189.04902649, -0.01133986, 0.01506791, 0.99982214, -0.00854235, 0.00251022, -0.00658181, 0.00000000, 0.00000000, 0.00000000, 0.60392393, 0.79698618, -0.00258048, -0.00906960
424169904.515008, -0.01785278, 0.01458740, 0.99295044, 0.01425883, 0.00447837, -0.01839898, -168.36653137, 138.59439087, 190.04753113, -0.01137510, 0.01497983, 0.99982309, -0.00772890, 0.00087405, -0.00661325, 0.00000000, 0.00000000, 0.00000000, 0.60384659, 0.79704507, -0.00253562, -0.00905679
424169904.530667, -0.01835632, 0.01583862, 0.99595642, 0.01999768, -0.00370286, -0.01498348, -168.87985229, 138.76548767, 189.54827881, -0.01147413, 0.01501538, 0.99982142, -0.00567675, 0.00103687, -0.00687099, 0.00000000, 0.00000000, 0.00000000, 0.60381390, 0.79706932, -0.00252026, -0.00910690
424169904.546136, -0.01556396, 0.01138306, 0.99191284, 0.01407001, -0.00719453, -0.01859579, -169.39315796, 138.93659973, 191.71170044, -0.01152617, 0.01505332, 0.99982023, -0.00683015, 0.00078530, -0.00386384, 0.00000000, 0.00000000, 0.00000000, 0.60385770, 0.79703577, -0.00251916, -0.00913924
424169904.562085, -0.02020264, 0.01121521, 0.99394226, 0.01068007, 0.00098111, -0.02082246, -169.90646362, 139.44990540, 190.21394348, -0.01149512, 0.01505778, 0.99982053, -0.00406884, -0.00367472, -0.00790770, 0.00000000, 0.00000000, 0.00000000, 0.60381213, 0.79707038, -0.00253083, -0.00912807
424169904.577429, -0.01834106, 0.01510620, 0.99343872, 0.00607653, 0.01043027, -0.00674605, -172.13082886, 140.64764404, 191.04602051, -0.01151109, 0.01499224, 0.99982136, -0.00560927, -0.00016070, -0.00639789, 0.00000000, 0.00000000, 0.00000000, 0.60383881, 0.79705042, -0.00249959, -0.00911472
424169904.593973, -0.01834106, 0.01510620, 0.99343872, 0.01412567, -0.00248979, -0.01269689, -172.13082886, 140.64764404, 191.04602051, -0.01170695, 0.01484062, 0.99982136, -0.00483358, -0.00246575, -0.00391069, 0.00000000, 0.00000000, 0.00000000, 0.60386036, 0.79703409, -0.00237977, -0.00914707
424169904.610100, -0.01698303, 0.01017761, 0.99490356, 0.01531904, -0.00372763, -0.02318015, -170.93309021, 141.16094971, 190.21394348, -0.01182240, 0.01479403, 0.99982065, -0.00505382, -0.00020662, -0.00963207, 0.00000000, 0.00000000, 0.00000000, 0.60388412, 0.79701587, -0.00232607, -0.00917908
424169904.625609, -0.01882935, 0.01461792, 0.99121094, 0.01065744, -0.00017870, -0.01967783, -170.76199341, 141.33206177, 191.04602051, -0.01170303, 0.01475742, 0.99982262, -0.00528000, -0.00457980, -0.00491905, 0.00000000, 0.00000000, 0.00000000, 0.60381211, 0.79707104, -0.00234835, -0.00912023
424169904.642310, -0.01345825, 0.01548767, 0.99443054, 0.01295921, -0.00490368, -0.02671603, -169.90646362, 139.44990540, 191.87811279, -0.01175886, 0.01486268, 0.99982041, -0.00707048, -0.00024476, -0.00860946, 0.00000000, 0.00000000, 0.00000000, 0.60380360, 0.79707679, -0.00237354, -0.00917425
424169904.657075, -0.01684570, 0.01361084, 0.99119568, 0.01178928, -0.00370845, -0.02321664, -169.05094910, 139.27880859, 188.38336182, -0.01161386, 0.01492164, 0.99982119, -0.00524711, -0.00033424, -0.00839666, 0.00000000, 0.00000000, 0.00000000, 0.60376083, 0.79710944, -0.00244131, -0.00913412
424169904.672868, -0.01684570, 0.01361084, 0.99119568, 0.01294536, -0.00728108, -0.03373959, -168.87985229, 137.39665222, 191.21244812, -0.01157999, 0.01483907, 0.99982285, -0.00302267, -0.00249471, -0.00766585, 0.00000000, 0.00000000, 0.00000000, 0.60374105, 0.79712493, -0.00241886, -0.00909563
424169904.688711, -0.01713562, 0.01556396, 0.99295044, 0.01766848, -0.00373322, -0.02199185, -168.02432251, 138.59439087, 188.71620178, -0.01158326, 0.01487619, 0.99982226, -0.00556762, 0.00093191, -0.00713121, 0.00000000, 0.00000000, 0.00000000, 0.60369096, 0.79716268, -0.00243324, -0.00910799
424169904.704415, -0.01826477, 0.01194763, 0.98844910, 0.01304603, 0.00454895, -0.00793542, -170.07757568, 138.93659973, 189.38186646, -0.01145702, 0.01496340, 0.99982238, -0.00567860, 0.00060057, -0.00687196, 0.00000000, 0.00000000, 0.00000000, 0.60365314, 0.79719138, -0.00250654, -0.00908387
424169904.720169, -0.01664734, 0.01528931, 0.99343872, 0.01411981, -0.00488157, -0.02204804, -169.56427002, 139.79211426, 190.21394348, -0.01163775, 0.01491221, 0.99982107, -0.00662702, -0.00296458, -0.01137198, 0.00000000, 0.00000000, 0.00000000, 0.60365744, 0.79718770, -0.00243153, -0.00914048
424169904.736447, -0.01832581, 0.01438904, 0.99244690, 0.01411582, -0.00487438, -0.02088424, -170.76199341, 140.64764404, 191.04602051, -0.01154935, 0.01489526, 0.99982238, -0.00821078, -0.00145227, -0.00810788, 0.00000000, 0.00000000, 0.00000000, 0.60357540, 0.79725022, -0.00245239, -0.00909988
424169904.752131, -0.01832581, 0.01438904, 0.99244690, 0.01066942, -0.00020027, -0.02316977, -170.76199341, 140.64764404, 191.04602051, -0.01155812, 0.01491623, 0.99982196, -0.00574534, -0.00205307, -0.00714616, 0.00000000, 0.00000000, 0.00000000, 0.60354978, 0.79726948, -0.00245839, -0.00910962
424169904.767745, -0.01660156, 0.01359558, 0.99168396, 0.01532836, -0.00494496, -0.03134754, -171.27529907, 140.81874084, 189.88111877, -0.01160813, 0.01496929, 0.99982059, -0.00580215, 0.00157124, -0.00685487, 0.00000000, 0.00000000, 0.00000000, 0.60351924, 0.79729217, -0.00246480, -0.00914548
424169904.783430, -0.01641846, 0.01605225, 0.99220276, 0.00709386, -0.00250177, -0.02091780, -171.27529907, 140.47653198, 190.54678345, -0.01153309, 0.01499439, 0.99982107, -0.00506847, -0.00139881, -0.00813710, 0.00000000, 0.00000000, 0.00000000, 0.60350890, 0.79730016, -0.00249758, -0.00912311
424169904.799210, -0.01853943, 0.01361084, 0.99743652, 0.01178262, -0.00489729, -0.02672802, -169.05094910, 137.90997314, 189.71469116, -0.01157474, 0.01493575, 0.99982148, -0.00484372, 0.00111649, -0.00761870, 0.00000000, 0.00000000, 0.00000000, 0.60346415, 0.79733415, -0.00246214, -0.00912188
424169904.815549, -0.01705933, 0.01286316, 0.99291992, 0.00832957, 0.00218965, -0.01617125, -170.76199341, 139.62101746, 189.38186646, -0.01169378, 0.01490361, 0.99982053, -0.00684564, -0.00129277, -0.00238403, 0.00000000, 0.00000000, 0.00000000, 0.60344870, 0.79734556, -0.00241358, -0.00915960
424169904.831116, -0.01535034, 0.01335144, 0.99168396, 0.01414804, -0.00493164, -0.03019572, -168.87985229, 137.05444336, 189.88111877, -0.01165303, 0.01484679, 0.99982190, -0.00369731, -0.00173949, -0.00764963, 0.00000000, 0.00000000, 0.00000000, 0.60340974, 0.79737546, -0.00240367, -0.00912608
424169904.846305, -0.01535034, 0.01335144, 0.99168396, 0.01411582, -0.00487438, -0.02088424, -169.73536682, 138.25218201, 190.38035583, -0.01164520, 0.01481692, 0.99982244, -0.00516998, -0.00195376, -0.00641421, 0.00000000, 0.00000000, 0.00000000, 0.60337202, 0.79740417, -0.00239455, -0.00911383
424169904.862532, -0.01852417, 0.01264954, 0.99417114, 0.01294429, -0.00607787, -0.02789981, -171.27529907, 138.76548767, 190.21394348, -0.01153213, 0.01480763, 0.99982387, -0.00381821, -0.00145619, -0.00813990, 0.00000000, 0.00000000, 0.00000000, 0.60333245, 0.79743456, -0.00242542, -0.00906582
424169904.877683, -0.01564026, 0.01431274, 0.99317932, 0.02228746, -0.00840600, -0.01853027, -170.07757568, 140.64764404, 191.04602051, -0.01155749, 0.01477958, 0.99982399, -0.00696668, -0.00213004, -0.00565284, 0.00000000, 0.00000000, 0.00000000, 0.60328710, 0.79746891, -0.00240710, -0.00906733
424169904.895380, -0.01727295, 0.01165771, 0.99218750, 0.00232787, -0.00717376, -0.02570110, -170.59088135, 140.13432312, 190.21394348, -0.01152137, 0.01483092, 0.99982363, -0.00411889, -0.00051817, -0.00664431, 0.00000000, 0.00000000, 0.00000000, 0.60326881, 0.79748264, -0.00243867, -0.00906836
424169904.910689, -0.01536560, 0.01382446, 0.99267578, 0.01765782, -0.00491513, -0.02433943, -170.59088135, 140.13432312, 190.21394348, -0.01140220, 0.01476934, 0.99982589, -0.00613015, -0.00262334, -0.00640245, 0.00000000, 0.00000000, 0.00000000, 0.60322384, 0.79751737, -0.00245058, -0.00900212
424169904.925795, -0.01536560, 0.01382446, 0.99267578, 0.01653796, -0.00140668, -0.02429256, -171.61750793, 140.81874084, 191.21244812, -0.01149501, 0.01467348, 0.99982625, -0.00554906, -0.00228334, -0.00541098, 0.00000000, 0.00000000, 0.00000000, 0.60316965, 0.79755847, -0.00238496, -0.00901005
424169904.942391, -0.01689148, 0.01530457, 0.99343872, 0.01412274, -0.00368555, -0.01737260, -170.07757568, 139.62101746, 190.38035583, -0.01143845, 0.01473714, 0.99982595, -0.00392715, -0.00091268, -0.00715019, 0.00000000, 0.00000000, 0.00000000, 0.60315492, 0.79756951, -0.00242758, -0.00900666
424169904.957624, -0.01779175, 0.01191711, 0.99043274, 0.00592500, -0.00250976, -0.02325792, -169.90646362, 140.13432312, 189.54827881, -0.01154681, 0.01467883, 0.99982560, -0.00534467, 0.00062573, -0.00638687, 0.00000000, 0.00000000, 0.00000000, 0.60317652, 0.79755306, -0.00237140, -0.00903235
424169904.973160, -0.01763916, 0.01582336, 0.99345398, 0.00836179, 0.00213266, -0.02548299, -169.56427002, 138.08106995, 190.21394348, -0.01158536, 0.01457413, 0.99982667, -0.00620639, -0.00265702, -0.00939393, 0.00000000, 0.00000000, 0.00000000, 0.60313168, 0.79758731, -0.00231852, -0.00901601
424169904.989038, -0.01895142, 0.01046753, 0.99366760, 0.01652971, -0.00139230, -0.02196469, -168.53764343, 139.10769653, 188.88261414, -0.01157910, 0.01457211, 0.99982679, -0.00435108, 0.00120548, -0.00564037, 0.00000000, 0.00000000, 0.00000000, 0.60309799, 0.79761282, -0.00231999, -0.00901280
424169905.004604, -0.01895142, 0.01046753, 0.99366760, 0.01407161, -0.00839748, -0.02443504, -169.73536682, 139.62101746, 190.71319580, -0.01168212, 0.01458654, 0.99982536, -0.00639954, -0.00022802, -0.00438774, 0.00000000, 0.00000000, 0.00000000, 0.60305858, 0.79764217, -0.00229512, -0.00905814
424169905.020385, -0.01612854, 0.01506042, 0.99394226, 0.01177463, -0.00488317, -0.02440015, -170.41978455, 141.33206177, 190.38035583, -0.01155293, 0.01461724, 0.99982643, -0.00739849, -0.00414971, -0.00615882, 0.00000000, 0.00000000, 0.00000000, 0.60299391, 0.79769139, -0.00234705, -0.00901567
424169905.036407, -0.01568604, 0.01577759, 0.99519348, 0.01189048, 0.00331643, -0.01960672, -170.59088135, 140.47653198, 190.87960815, -0.01152829, 0.01461157, 0.99982679, -0.00460025, 0.00044886, -0.00588452, 0.00000000, 0.00000000, 0.00000000, 0.60294425, 0.79772904, -0.00235278, -0.00900398
424169905.052352, -0.01815796, 0.01705933, 0.99272156, 0.00835540, 0.00454575, -0.01263990, -170.59088135, 140.47653198, 190.87960815, -0.01151737, 0.01466541, 0.99982613, -0.00416866, 0.00111218, -0.00463264, 0.00000000, 0.00000000, 0.00000000, 0.60292636, 0.79774236, -0.00237775, -0.00901581
424169905.068047, -0.01667786, 0.01629639, 0.99194336, 0.01541518, 0.00450767, -0.01256666, -170.07757568, 142.35868835, 191.04602051, -0.01147861, 0.01466801, 0.99982655, -0.00728970, -0.00224736, -0.00640307, 0.00000000, 0.00000000, 0.00000000, 0.60292845, 0.79774090, -0.00239045, -0.00900114
424169905.083784, -0.01667786, 0.01629639, 0.99194336, 0.01294429, -0.00607787, -0.02789981, -170.93309021, 139.10769653, 192.21093750, -0.01159237, 0.01471907, 0.99982446, -0.00644352, -0.00184065, -0.00514978, 0.00000000, 0.00000000, 0.00000000, 0.60294031, 0.79773129, -0.00237639, -0.00906195
424169905.099777, -0.01660156, 0.01358032, 0.99467468, 0.01642478, -0.00841026, -0.02441080, -171.44641113, 139.62101746, 190.04753113, -0.01143992, 0.01485639, 0.99982417, -0.00523793, 0.00144000, -0.00788083, 0.00000000, 0.00000000, 0.00000000, 0.60290767, 0.79775588, -0.00247749, -0.00904244
424169905.115471, -0.01727295, 0.01190186, 0.99168396, 0.01178129, -0.00369407, -0.02088877, -169.22206116, 137.39665222, 190.21394348, -0.01141351, 0.01487809, 0.99982417, -0.00518806, -0.00129777, -0.00514949, 0.00000000, 0.00000000, 0.00000000, 0.60286310, 0.79778955, -0.00249462, -0.00903831
424169905.131061, -0.01632690, 0.01260376, 0.99540710, 0.00832424, -0.00020187, -0.02552214, -169.56427002, 137.73886108, 190.21394348, -0.01143765, 0.01489644, 0.99982363, -0.00583530, -0.00299458, -0.00813966, 0.00000000, 0.00000000, 0.00000000, 0.60282624, 0.79781723, -0.00249508, -0.00905336
424169905.146455, -0.01783752, 0.01388550, 0.99220276, 0.01418053, -0.00138671, -0.02315299, -170.93309021, 139.44990540, 190.54678345, -0.01136730, 0.01489570, 0.99982446, -0.00650074, -0.00004890, -0.00463095, 0.00000000, 0.00000000, 0.00000000, 0.60277228, 0.79785826, -0.00251660, -0.00902490
424169905.162670, -0.01783752, 0.01388550, 0.99220276, 0.01074479, 0.00446878, -0.02309120, -170.76199341, 139.96322632, 190.04753113, -0.01133686, 0.01482930, 0.99982578, -0.00352520, -0.00225606, -0.00589877, 0.00000000, 0.00000000, 0.00000000, 0.60273043, 0.79789029, -0.00249976, -0.00899261
424169905.177999, -0.01492310, 0.01478577, 0.99517822, 0.01531904, -0.00372763, -0.02318015, -171.10420227, 139.96322632, 190.38035583, -0.01137525, 0.01479838, 0.99982578, -0.00449389, -0.00072977, -0.00689061, 0.00000000, 0.00000000, 0.00000000, 0.60267146, 0.79793484, -0.00247652, -0.00899842
424169905.194562, -0.01806641, 0.01411438, 0.99319458, 0.01412514, -0.00609145, -0.02905163, -170.59088135, 141.16094971, 190.21394348, -0.01128674, 0.01485563, 0.99982595, -0.00363635, -0.00006986, -0.00464772, 0.00000000, 0.00000000, 0.00000000, 0.60266931, 0.79793651, -0.00252606, -0.00898035
424169905.210416, -0.01512146, 0.01309204, 0.99140930, 0.00940256, -0.00603739, -0.02444436, -170.59088135, 141.16094971, 190.21394348, -0.01124205, 0.01487437, 0.99982619, -0.00682435, -0.00075999, -0.00663159, 0.00000000, 0.00000000, 0.00000000, 0.60260022, 0.79798876, -0.00254778, -0.00896795
424169905.225683, -0.01492310, 0.01502991, 0.99368286, 0.01181911, -0.00135954, -0.02084936, -170.93309021, 140.13432312, 190.54678345, -0.01113960, 0.01484080, 0.99982780, -0.00637749, -0.00316782, -0.00739617, 0.00000000, 0.00000000, 0.00000000, 0.60254112, 0.79803390, -0.00256592, -0.00891675
424169905.243223, -0.01492310, 0.01502991, 0.99368286, 0.01303085, -0.00022717, -0.02547340, -170.41978455, 140.30543518, 190.38035583, -0.01112940, 0.01479576, 0.99982858, -0.00522802, -0.00120018, -0.00790050, 0.00000000, 0.00000000, 0.00000000, 0.60249925, 0.79806576, -0.00255148, -0.00889897
424169905.257922, -0.01570129, 0.01626587, 0.99543762, 0.01647991, -0.00370526, -0.01851243, -169.56427002, 138.42327881, 189.88111877, -0.01111691, 0.01476834, 0.99982911, -0.00426395, -0.00021146, -0.00764164, 0.00000000, 0.00000000, 0.00000000, 0.60245519, 0.79809919, -0.00254480, -0.00888559
424169905.274992, -0.01889038, 0.01632690, 0.99470520, 0.01412913, -0.00609864, -0.03021543, -170.41978455, 137.56776428, 190.38035583, -0.01104023, 0.01483066, 0.99982905, -0.00466107, 0.00143521, -0.00439145, 0.00000000, 0.00000000, 0.00000000, 0.60241866, 0.79812674, -0.00259318, -0.00887364
424169905.289355, -0.01832581, 0.01437378, 0.99444580, 0.01887489, -0.00139044, -0.01961232, -170.24867249, 137.39665222, 189.54827881, -0.01101450, 0.01491439, 0.99982810, -0.00787588, 0.00141252, -0.00512291, 0.00000000, 0.00000000, 0.00000000, 0.60231980, 0.79820105, -0.00263544, -0.00888827
424169905.304723, -0.01683044, 0.01336670, 0.99443054, 0.01646633, -0.00608266, -0.02553545, -170.93309021, 138.42327881, 189.88111877, -0.01097332, 0.01486014, 0.99982935, -0.00602497, -0.00370597, -0.00417812, 0.00000000, 0.00000000, 0.00000000, 0.60227620, 0.79823434, -0.00262668, -0.00885535
424169905.320842, -0.01683044, 0.01336670, 0.99443054, 0.01407401, -0.00720172, -0.01975959, -171.78862000, 140.30543518, 191.04602051, -0.01105676, 0.01492052, 0.99982756, -0.00801673, 0.00021620, -0.00788419, 0.00000000, 0.00000000, 0.00000000, 0.60223405, 0.79826557, -0.00262612, -0.00890671
424169905.336347, -0.01757812, 0.01435852, 0.99569702, 0.01529214, -0.00488078, -0.02087199, -171.27529907, 141.16094971, 192.54377747, -0.01100714, 0.01499147, 0.99982703, -0.00467890, 0.00080138, -0.00788368, 0.00000000, 0.00000000, 0.00000000, 0.60222125, 0.79827507, -0.00266952, -0.00890822
424169905.352863, -0.01731873, 0.01336670, 0.99519348, 0.01763758, -0.00487918, -0.01851989, -171.95971680, 141.16094971, 191.54527283, -0.01089536, 0.01499923, 0.99982816, -0.00668277, -0.00064071, -0.00413112, 0.00000000, 0.00000000, 0.00000000, 0.60218429, 0.79830330, -0.00270669, -0.00886581
424169905.368094, -0.01712036, 0.01507568, 0.99368286, 0.01296720, -0.00491806, -0.02904417, -171.95971680, 141.16094971, 191.54527283, -0.01093208, 0.01505368, 0.99982691, -0.00638665, -0.00168698, -0.00463344, 0.00000000, 0.00000000, 0.00000000, 0.60215488, 0.79832510, -0.00271770, -0.00889677
424169905.384190, -0.01734924, 0.01387024, 0.98970032, 0.01066090, -0.00378755, -0.03719637, -170.93309021, 140.13432312, 190.54678345, -0.01079885, 0.01513334, 0.99982715, -0.00459727, -0.00008817, -0.00539663, 0.00000000, 0.00000000, 0.00000000, 0.60210590, 0.79836211, -0.00279016, -0.00886740
424169905.399676, -0.01734924, 0.01387024, 0.98970032, 0.01645141, -0.00725738, -0.02671896, -169.56427002, 138.08106995, 189.88111877, -0.01079312, 0.01514864, 0.99982703, -0.00599154, -0.00326204, -0.00690708, 0.00000000, 0.00000000, 0.00000000, 0.60204165, 0.79841051, -0.00279870, -0.00886949
424169905.415675, -0.01582336, 0.01138306, 0.99092102, 0.01403885, -0.01194215, -0.03147803, -168.19543457, 138.76548767, 190.21394348, -0.01095729, 0.01511958, 0.99982566, -0.00900121, -0.00266841, -0.00388449, 0.00000000, 0.00000000, 0.00000000, 0.60202461, 0.79842294, -0.00273787, -0.00892623
424169905.431416, -0.01715088, 0.01582336, 0.99143982, 0.01881417, -0.00488530, -0.01850764, -169.05094910, 139.62101746, 188.71620178, -0.01078953, 0.01508874, 0.99982792, -0.00503384, -0.00370568, -0.00890692, 0.00000000, 0.00000000, 0.00000000, 0.60192876, 0.79849592, -0.00277712, -0.00884963
424169905.447692, -0.01658630, 0.01336670, 0.99243164, 0.01528654, -0.00727256, -0.03022288, -170.24867249, 138.76548767, 189.54827881, -0.01086402, 0.01509318, 0.99982709, -0.00628686, 0.00073018, -0.00838725, 0.00000000, 0.00000000, 0.00000000, 0.60190914, 0.79851044, -0.00275669, -0.00888064
424169905.463153, -0.01528931, 0.01089478, 0.99165344, 0.01171631, -0.01078341, -0.03497450, -168.53764343, 140.47653198, 190.21394348, -0.01079005, 0.01515833, 0.99982691, -0.00658971, -0.00031152, -0.01037071, 0.00000000, 0.00000000, 0.00000000, 0.60186030, 0.79854719, -0.00280551, -0.00887055
424169905.478291, -0.01528931, 0.01089478, 0.99165344, 0.02591575, -0.00259632, -0.01955905, -170.41978455, 140.30543518, 191.04602051, -0.01071528, 0.01514894, 0.99982780, -0.00417730, -0.00109559, -0.00689265, 0.00000000, 0.00000000, 0.00000000, 0.60178651, 0.79860310, -0.00282508, -0.00883760
424169905.494466, -0.01506042, 0.01086426, 0.99314880, 0.01995267, -0.01082788, -0.03488927, -170.93309021, 140.81874084, 191.54527283, -0.01070871, 0.01515094, 0.99982786, -0.00535879, -0.00228778, -0.00765563, 0.00000000, 0.00000000, 0.00000000, 0.60173528, 0.79864172, -0.00282842, -0.00883540
424169905.510994, -0.02160645, 0.01667786, 0.98373413, -0.01281566, 0.00464588, -0.01518668, -170.59088135, 140.81874084, 190.54678345, -0.01054779, 0.01528942, 0.99982744, -0.00451264, -0.00442516, -0.00667867, 0.00000000, 0.00000000, 0.00000000, 0.60169127, 0.79867474, -0.00293263, -0.00881264
424169905.526118, -0.01284790, 0.01081848, 0.99389648, 0.02227788, -0.01079060, -0.02671710, -170.59088135, 140.81874084, 190.54678345, -0.01073501, 0.01501637, 0.99982959, -0.01087143, 0.00166149, -0.01609549, 0.00000000, 0.00000000, 0.00000000, 0.60169688, 0.79867119, -0.00276719, -0.00880527
424169905.542319, -0.01358032, 0.01179504, 0.99688721, 0.01538082, 0.00697056, 0.00842358, -170.59088135, 139.44990540, 189.54827881, -0.01079793, 0.01483749, 0.99983162, -0.00204997, -0.00401901, -0.00593513, 0.00000000, 0.00000000, 0.00000000, 0.60172955, 0.79864720, -0.00267647, -0.00877669
424169905.558528, 0.00000000, -0.00430298, 0.97970581, 0.01771029, 0.00700065, 0.01543142, -170.07757568, 137.22555542, 190.71319580, -0.01080292, 0.01494551, 0.99982995, -0.00750763, -0.00081587, -0.00439233, 0.00000000, 0.00000000, 0.00000000, 0.60179402, 0.79859811, -0.00271739, -0.00881140
424169905.574508, 0.00000000, -0.00430298, 0.97970581, 0.01365270, -0.02206216, 0.03119840, -168.53764343, 137.05444336, 190.21394348, -0.01090897, 0.01475360, 0.99983168, -0.00242721, -0.01202228, -0.00050304, 0.00000000, 0.00000000, 0.00000000, 0.60197241, 0.79846418, -0.00260688, -0.00879658
424169905.589463, -0.01617432, 0.04411316, 1.00590515, -0.01381701, 0.01754890, -0.00567094, -168.87985229, 138.76548767, 190.21394348, -0.01044400, 0.01452652, 0.99983996, 0.01044400, -0.01882950, -0.02013413, 0.00000000, 0.00000000, 0.00000000, 0.60224006, 0.79826492, -0.00265332, -0.00854345
424169905.605039, -0.01423645, 0.01507568, 0.97993469, 0.00595483, -0.00016059, -0.02089063, -170.76199341, 139.62101746, 191.37886047, -0.01108451, 0.01469169, 0.99983060, -0.00508981, 0.02942147, 0.00607452, 0.00000000, 0.00000000, 0.00000000, 0.60239075, 0.79814830, -0.00252468, -0.00884936
424169905.621015, -0.01287842, 0.02272034, 1.08187866, 0.06068545, 0.03929840, -0.00918551, -171.44641113, 141.67427063, 189.71469116, -0.01130390, 0.01457937, 0.99982983, -0.00293255, 0.00049631, -0.01989513, 0.00000000, 0.00000000, 0.00000000, 0.60238238, 0.79815436, -0.00241387, -0.00890306
424169905.636949, -0.01765442, 0.01484680, 1.05812073, 0.03007242, 0.03589781, -0.02003709, -169.73536682, 141.33206177, 190.71319580, -0.01163277, 0.01498185, 0.99982011, -0.01345268, -0.00266801, -0.07501541, 0.00000000, 0.00000000, 0.00000000, 0.60232779, 0.79819251, -0.00247605, -0.00915541
424169905.652500, -0.01765442, 0.01484680, 1.05812073, 0.03007242, 0.03589781, -0.02003709, -171.10420227, 140.64764404, 190.38035583, -0.01242545, 0.01509575, 0.99980885, -0.00310800, -0.00134758, -0.05382496, 0.00000000, 0.00000000, 0.00000000, 0.60233419, 0.79818415, -0.00228267, -0.00950615
424169905.668287, -0.01806641, 0.01719666, 1.01969910, 0.02790380, -0.02597567, -0.02342037, -171.10420227, 140.64764404, 190.38035583, -0.01227192, 0.01509540, 0.99981076, -0.00538250, -0.00024860, 0.05830998, 0.00000000, 0.00000000, 0.00000000, 0.60235036, 0.79817255, -0.00232859, -0.00944481
424169905.684605, -0.01678467, 0.02116394, 0.99972534, 0.04340207, -0.01560985, -0.03239629, -168.87985229, 140.81874084, 190.87960815, -0.01179914, 0.01510767, 0.99981624, -0.00626727, 0.00208899, 0.01988284, 0.00000000, 0.00000000, 0.00000000, 0.60234672, 0.79817702, -0.00247594, -0.00925978
424169905.699855, -0.00706482, 0.03485107, 0.94633484, 0.05640921, -0.00378568, 0.00401685, -169.05094910, 139.62101746, 189.04902649, -0.01126924, 0.01561431, 0.99981457, -0.00551543, 0.00554963, -0.00008924, 0.00000000, 0.00000000, 0.00000000, 0.60230090, 0.79821107, -0.00283828, -0.00920073
424169905.716498, 0.00225830, -0.02140808, 1.22276306, 0.44380674, 0.01042867, 0.00247754, -167.51101685, 138.76548767, 190.21394348, -0.01101915, 0.01665386, 0.99980062, 0.00334398, 0.01783100, -0.01525775, 0.00000000, 0.00000000, 0.00000000, 0.60239001, 0.79813944, -0.00332747, -0.00941441
424169905.731493, 0.00225830, -0.02140808, 1.22276306, 0.01535659, 0.08898607, 0.05867556, -171.27529907, 137.73886108, 189.54827881, -0.01135581, 0.02054379, 0.99972445, -0.06582315, 0.01218631, -0.19406040, 0.00000000, 0.00000000, 0.00000000, 0.60255117, 0.79799393, -0.00477634, -0.01072175
424169905.748033, -0.01391602, 0.03515625, 1.09747314, 0.01164121, 0.00856366, 0.07475253, -169.56427002, 139.44990540, 190.54678345, -0.01198340, 0.02345049, 0.99965316, 0.01424170, -0.04485857, 0.22310989, 0.00000000, 0.00000000, 0.00000000, 0.60288368, 0.79772041, -0.00574217, -0.01185071
424169905.763232, -0.00769043, 0.06922913, 1.04701233, 0.06501708, 0.11590929, 0.11550982, -171.61750793, 140.13432312, 191.87811279, -0.01145940, 0.02426602, 0.99963987, -0.00245662, 0.01089023, 0.09783329, 0.00000000, 0.00000000, 0.00000000, 0.60337395, 0.79734547, -0.00621817, -0.01189143
