Timestamp, AccelerationX, AccelerationY, AccelerationZ, GyroX, GyroY, GyroZ, MagnetometerX, MagnetometerY, MagnetometerZ, DMUserAccelerationX, DMUserAccelerationY, DMUserAccelerationZ, DMGravityX, DMGravityY, DMGravityZ, DMMagX, DMMagY, DMMagZ, DMAttitudeX, DMAttitudeY, DMAttitudeZ, DMAttitudeW 
424168846.112593, 0.01202393, -0.28048706, -0.98736572, 0.09583039, 0.01656513, -0.06855669, -174.69738770, 150.05836487, 236.81053162, 0.03058035, -0.26691195, -0.96323562, -0.02726919, -0.01633694, -0.02461839, 0.00000000, 0.00000000, 0.00000000, 0.06002045, 0.12157194, 0.83269607, 0.53687527
424168846.130321, 0.02856445, -0.28434753, -0.97277832, 0.07966580, 0.03651913, -0.06490044, -174.69738770, 149.71615601, 233.81504822, 0.02999718, -0.26816446, -0.96290600, -0.00822288, -0.01136130, -0.01977526, 0.00000000, 0.00000000, 0.00000000, 0.06064929, 0.12193710, 0.83247698, 0.53706153
424168846.143812, 0.05165100, -0.28660583, -0.95944214, 0.05769605, 0.06357338, -0.05071138, -174.69738770, 149.71615601, 233.81504822, 0.03066160, -0.26932189, -0.96256196, -0.00209715, -0.01502565, -0.01021633, 0.00000000, 0.00000000, 0.00000000, 0.06072499, 0.12260294, 0.83224856, 0.53725536
424168846.159576, 0.05781555, -0.28010559, -0.96742249, 0.05999436, 0.06245752, -0.04023104, -175.38180542, 150.40057373, 235.14637756, 0.03233961, -0.27063403, -0.96213895, 0.01931140, -0.01597181, 0.00269682, 0.00000000, 0.00000000, 0.00000000, 0.06040973, 0.12361709, 0.83202584, 0.53740347
424168846.175239, 0.05781555, -0.28010559, -0.96742249, 0.07507824, 0.05434686, -0.01693158, -173.49966431, 149.88726807, 234.64712524, 0.03332819, -0.27137697, -0.96189594, 0.02448736, -0.00872862, -0.00552656, 0.00000000, 0.00000000, 0.00000000, 0.06020769, 0.12420576, 0.83193123, 0.53743688
424168846.191411, 0.04792786, -0.26675415, -0.95376587, 0.04840961, 0.00784541, -0.00983878, -172.13082886, 147.83401489, 235.31278992, 0.03419088, -0.27231312, -0.96160102, 0.01984049, -0.00403882, -0.00850699, 0.00000000, 0.00000000, 0.00000000, 0.06009381, 0.12485277, 0.83190752, 0.53733638
424168846.207639, 0.04177856, -0.27943420, -0.92585754, 0.01412274, -0.00368555, -0.01737260, -173.32855225, 148.68952942, 235.47920227, 0.03498236, -0.27297369, -0.96138525, 0.00414117, -0.00047906, 0.02585363, 0.00000000, 0.00000000, 0.00000000, 0.05992686, 0.12536406, 0.83192838, 0.53720368
424168846.222791, 0.04193115, -0.27555847, -0.91882324, -0.03950853, 0.03175367, 0.00360885, -173.15745544, 146.12297058, 233.98146057, 0.03486454, -0.27319220, -0.96132743, 0.01312436, -0.00004693, 0.04595270, 0.00000000, 0.00000000, 0.00000000, 0.06003426, 0.12542790, 0.83193028, 0.53717384
424168846.239766, 0.01454163, -0.26231384, -0.95927429, -0.05278332, 0.01079805, 0.00079309, -173.15745544, 146.80738831, 235.97845459, 0.03526424, -0.27322328, -0.96130407, 0.00666691, -0.00233519, 0.04248080, 0.00000000, 0.00000000, 0.00000000, 0.05984939, 0.12556284, 0.83202883, 0.53701028
424168846.255196, 0.02236938, -0.26557922, -0.98034668, -0.04372538, -0.01864133, -0.03335636, -173.15745544, 146.80738831, 235.97845459, 0.03545250, -0.27226499, -0.96156895, -0.02091088, 0.00995115, 0.00229468, 0.00000000, 0.00000000, 0.00000000, 0.05946773, 0.12521622, 0.83223678, 0.53681135
424168846.270537, 0.02236938, -0.26557922, -0.98034668, -0.01334057, 0.04191922, -0.02853657, -172.64413452, 147.66291809, 235.47920227, 0.03521915, -0.27141234, -0.96181858, -0.02383609, 0.00700805, -0.01169218, 0.00000000, 0.00000000, 0.00000000, 0.05933105, 0.12478199, 0.83228362, 0.53685496
424168846.286307, 0.01875305, -0.26960754, -0.99806213, 0.02026346, 0.08019710, -0.03802168, -172.64413452, 146.63629150, 235.14637756, 0.03510703, -0.27054715, -0.96206641, -0.00977744, 0.00321317, -0.02703884, 0.00000000, 0.00000000, 0.00000000, 0.05914060, 0.12437522, 0.83232545, 0.53690553
424168846.302255, 0.02929688, -0.27580261, -0.97470093, 0.00595936, 0.06859344, -0.03952877, -171.78862000, 148.51843262, 236.31129456, 0.03625021, -0.27058083, -0.96201450, -0.01005087, -0.00046105, -0.02211634, 0.00000000, 0.00000000, 0.00000000, 0.05866677, 0.12470344, 0.83230959, 0.53690596
424168846.317798, 0.04652405, -0.27937317, -0.96884155, -0.03040957, 0.00103917, -0.04801946, -172.30192566, 147.66291809, 236.14486694, 0.03717233, -0.27066052, -0.96195692, -0.00787545, -0.00514209, -0.01274402, 0.00000000, 0.00000000, 0.00000000, 0.05830260, 0.12498940, 0.83227873, 0.53692696
424168846.333632, 0.05543518, -0.27796936, -1.00234985, -0.04491181, -0.02101953, -0.04155570, -173.15745544, 149.88726807, 235.31278992, 0.03765011, -0.27027324, -0.96204722, 0.00887393, -0.00909994, -0.00679433, 0.00000000, 0.00000000, 0.00000000, 0.05800661, 0.12494648, 0.83223767, 0.53703266
424168846.349591, 0.05543518, -0.27796936, -1.00234985, -0.01158928, 0.00695271, -0.01862748, -173.15745544, 149.88726807, 235.31278992, 0.03745235, -0.26941624, -0.96229529, 0.01880680, -0.00962125, -0.01884485, 0.00000000, 0.00000000, 0.00000000, 0.05787077, 0.12451237, 0.83221046, 0.53719028
424168846.364530, 0.05685425, -0.27844238, -1.01708984, 0.02538392, 0.04189499, 0.00212787, -172.47303772, 148.17622375, 235.64562988, 0.03782140, -0.26878965, -0.96245605, 0.01915492, -0.01259769, -0.04492919, 0.00000000, 0.00000000, 0.00000000, 0.05754397, 0.12434090, 0.83222900, 0.53723638
424168846.381171, 0.03381348, -0.27314758, -0.98944092, 0.03606533, 0.04647829, -0.00233959, -173.49966431, 150.57168579, 235.64562988, 0.03817695, -0.26887128, -0.96241921, 0.00848442, -0.00229266, -0.04331809, 0.00000000, 0.00000000, 0.00000000, 0.05739212, 0.12448508, 0.83232456, 0.53707116
424168846.397934, 0.02581787, -0.27186584, -0.95591736, 0.02850754, 0.01137702, -0.02279027, -173.84187317, 149.54505920, 236.64411926, 0.03862674, -0.26921716, -0.96230459, -0.00481326, -0.00393041, -0.02713635, 0.00000000, 0.00000000, 0.00000000, 0.05726385, 0.12477406, 0.83244588, 0.53682972
424168846.412815, 0.03237915, -0.27030945, -0.95394897, -0.01440664, 0.04773343, -0.03310655, -174.01296997, 150.05836487, 234.48071289, 0.03887924, -0.26951194, -0.96221191, -0.01306137, -0.00235390, 0.00629453, 0.00000000, 0.00000000, 0.00000000, 0.05722582, 0.12497705, 0.83248167, 0.53673105
424168846.430445, 0.03237915, -0.27030945, -0.95394897, -0.00161947, 0.10829691, -0.04360047, -174.01296997, 148.00511169, 235.47920227, 0.03939907, -0.26935589, -0.96223444, -0.00628750, -0.00905596, 0.01344293, 0.00000000, 0.00000000, 0.00000000, 0.05695920, 0.12505372, 0.83249962, 0.53671370
424168846.444283, 0.02900696, -0.27340698, -0.96218872, 0.00613486, 0.22021679, -0.05910913, -174.01296997, 148.00511169, 235.47920227, 0.04021303, -0.26915294, -0.96225756, -0.01131288, -0.00127857, -0.00566847, 0.00000000, 0.00000000, 0.00000000, 0.05655280, 0.12519186, 0.83252688, 0.53668219
424168846.460077, 0.03132629, -0.27758789, -0.96623230, 0.00561235, 0.32865032, -0.07941759, -175.38180542, 147.66291809, 235.47920227, 0.04243325, -0.26945445, -0.96207780, -0.00718545, -0.00703481, 0.00680133, 0.00000000, 0.00000000, 0.00000000, 0.05569598, 0.12593272, 0.83248814, 0.53665855
424168846.475646, 0.01420593, -0.27720642, -0.96412659, 0.04998034, 0.44252896, -0.12360849, -172.98634338, 148.34732056, 235.81204224, 0.04673827, -0.26960576, -0.96183586, -0.01541198, -0.00798213, -0.00439642, 0.00000000, 0.00000000, 0.00000000, 0.05391921, 0.12718010, 0.83241534, 0.53665878
424168846.491757, -0.01115417, -0.28201294, -0.91009521, 0.04332351, 0.66855250, -0.19904812, -175.21069336, 146.46517944, 233.98146057, 0.05152664, -0.27016523, -0.96143419, -0.03732071, -0.00704118, -0.00269237, 0.00000000, 0.00000000, 0.00000000, 0.05205435, 0.12873709, 0.83229473, 0.53665873
424168846.507651, -0.01115417, -0.28201294, -0.91009521, 0.05176439, 1.16148951, -0.32457595, -174.69738770, 146.29408264, 234.14787292, 0.06084048, -0.27064449, -0.96075493, -0.05902468, -0.01472538, 0.02308706, 0.00000000, 0.00000000, 0.00000000, 0.04830818, 0.13148713, 0.83187921, 0.53698643
424168846.523231, -0.01864624, -0.28382874, -0.89881897, 0.11128977, 1.74726324, -0.49341264, -173.84187317, 146.12297058, 233.64862061, 0.07685873, -0.27101225, -0.95950252, -0.09031698, -0.01393038, 0.06613094, 0.00000000, 0.00000000, 0.00000000, 0.04175089, 0.13603529, 0.83112122, 0.53757677
424168846.539986, -0.03193665, -0.25465393, -0.97143555, 0.24729368, 2.04556951, -0.64646451, -175.72401428, 146.29408264, 232.15087891, 0.10214113, -0.27164099, -0.95696306, -0.13464236, 0.00612281, 0.01741841, 0.00000000, 0.00000000, 0.00000000, 0.03144261, 0.14328230, 0.82974739, 0.53851724
424168846.554655, 0.08883667, -0.25456238, -0.98161316, 0.27946280, 1.69486874, -0.70319490, -175.72401428, 146.29408264, 232.15087891, 0.13460822, -0.27355868, -0.95238978, -0.16654487, 0.01890475, -0.01904578, 0.00000000, 0.00000000, 0.00000000, 0.01860363, 0.15316338, 0.82744758, 0.53993090
424168846.570554, 0.24005127, -0.30073547, -0.82905579, 0.22417425, 1.41649144, -0.65488117, -176.06622314, 147.66291809, 233.48220825, 0.16506979, -0.27598688, -0.94688076, -0.07623312, 0.02142451, -0.03473238, 0.00000000, 0.00000000, 0.00000000, 0.00692706, 0.16282392, 0.82444385, 0.54197115
424168846.586614, 0.24005127, -0.30073547, -0.82905579, 0.09256242, 1.72797423, -0.61031822, -176.06622314, 147.66291809, 233.14938354, 0.18979023, -0.27774209, -0.94172132, 0.05026103, -0.02299339, 0.11266551, 0.00000000, 0.00000000, 0.00000000, -0.00243589, 0.17068514, 0.82137646, 0.54424384
424168846.602499, 0.31259155, -0.31530762, -0.75946045, 0.04666417, 2.66418241, -0.64055735, -178.46168518, 149.03173828, 233.81504822, 0.21575680, -0.27767000, -0.93613482, 0.06961308, -0.03629484, 0.16960953, 0.00000000, 0.00000000, 0.00000000, -0.01291065, 0.17822994, 0.81851578, 0.54598473
424168846.617966, 0.34298706, -0.31506348, -0.80758667, 0.21514373, 3.95584510, -0.76155408, -180.00161743, 148.51843262, 231.31880188, 0.25238496, -0.27605489, -0.92741334, 0.07639617, -0.03440042, 0.14868106, 0.00000000, 0.00000000, 0.00000000, -0.02852002, 0.18836117, 0.81552259, 0.54647011
424168846.634508, 0.38597107, -0.31927490, -0.71694946, 0.41202830, 5.17229346, -0.94054115, -181.71266174, 149.88726807, 230.98596191, 0.30654159, -0.27495852, -0.91127932, 0.03644546, -0.04010494, 0.10369268, 0.00000000, 0.00000000, 0.00000000, -0.05163093, 0.20419249, 0.81121470, 0.54550013
424168846.649261, 0.43928528, -0.31854248, -0.56369019, 0.38236362, 6.27910055, -1.11790288, -184.96363831, 150.74278259, 227.82405090, 0.37794855, -0.27534685, -0.88393384, 0.00802252, -0.04392804, 0.16698436, 0.00000000, 0.00000000, 0.00000000, -0.08201719, 0.22650887, 0.80442714, 0.54301370
424168846.665156, 0.43928528, -0.31854248, -0.56369019, 0.32627851, 6.94320078, -1.17956092, -184.96363831, 150.74278259, 227.82405090, 0.46342459, -0.27389759, -0.84274417, -0.02413930, -0.04464489, 0.27905402, 0.00000000, 0.00000000, 0.00000000, -0.11974806, 0.25355139, 0.79450997, 0.53863346
424168846.681365, 0.54357910, -0.30442810, -0.63011169, 0.32793926, 6.96755006, -1.20474217, -186.16136169, 147.83401489, 224.66213989, 0.55565196, -0.26894084, -0.78671581, -0.05922251, -0.03286276, 0.18712167, 0.00000000, 0.00000000, 0.00000000, -0.16296973, 0.28298935, 0.78140731, 0.53175230
424168846.697258, 0.54673767, -0.24827576, -0.68336487, 0.49669925, 6.76186295, -1.28555952, -189.07014465, 147.32070923, 221.16740417, 0.64370424, -0.26152799, -0.71919954, -0.10238346, -0.02567296, 0.07175384, 0.00000000, 0.00000000, 0.00000000, -0.20709925, 0.31226614, 0.76558629, 0.52295066
424168846.712756, 0.61936951, -0.22921753, -0.51756287, 0.64860117, 6.81398687, -1.40647503, -190.95228577, 146.12297058, 217.67265320, 0.72257006, -0.25272319, -0.64344656, -0.17583241, 0.00444742, -0.03991830, 0.00000000, 0.00000000, 0.00000000, -0.24952552, 0.34060788, 0.74709470, 0.51339341
424168846.729962, 0.73335266, -0.23620605, -0.35299683, 0.91912906, 7.78978507, -1.55146684, -190.43898010, 145.95187378, 215.50923157, 0.79185814, -0.24242821, -0.56052589, -0.17248860, 0.01321068, 0.04296304, 0.00000000, 0.00000000, 0.00000000, -0.29000960, 0.36828179, 0.72570456, 0.50360287
424168846.744277, 0.73335266, -0.23620605, -0.35299683, 1.11803710, 9.22030045, -1.65353382, -190.78118896, 143.55641174, 211.51524353, 0.85728854, -0.22954860, -0.46082947, -0.12393589, -0.00665746, 0.10783263, 0.00000000, 0.00000000, 0.00000000, -0.33306448, 0.39831310, 0.69915647, 0.49152310
424168846.760133, 0.89181519, -0.19367981, -0.29090881, 1.45395732, 10.29212585, -1.88003913, -190.78118896, 143.55641174, 211.51524353, 0.91778058, -0.21381281, -0.33460864, -0.08236185, 0.01196955, 0.07969531, 0.00000000, 0.00000000, 0.00000000, -0.38128025, 0.43280603, 0.66497867, 0.47445514
424168846.776183, 1.10955811, -0.21406555, -0.29136658, 1.42945225, 10.30870882, -1.86255974, -188.72793579, 144.58303833, 207.52125549, 0.96442837, -0.19256043, -0.18110330, 0.01500279, -0.03555846, -0.23596518, 0.00000000, 0.00000000, 0.00000000, -0.43383260, 0.47035904, 0.62153506, 0.45193564
424168846.791614, 1.21920776, -0.19902039, -0.43522644, 1.41271934, 9.10516028, -1.32183870, -187.87240601, 141.33206177, 200.36534119, 0.98598969, -0.16599020, -0.01647956, 0.12356841, -0.04807535, -0.27488703, 0.00000000, 0.00000000, 0.00000000, -0.48480511, 0.50667961, 0.57153535, 0.42613041
424168846.808260, 0.97991943, -0.24397278, -0.17520142, 1.48174342, 7.04230659, -0.35578634, -185.47695923, 141.33206177, 199.36685181, 0.98058045, -0.14098345, 0.13632919, 0.23862731, -0.05803694, -0.57155561, 0.00000000, 0.00000000, 0.00000000, -0.52813002, 0.53781342, 0.52246899, 0.39857441
424168846.823419, 0.97991943, -0.24397278, -0.17520142, 1.86328811, 4.82696669, 0.38635197, -182.73928833, 142.01647949, 197.36985779, 0.95767641, -0.12616934, 0.25872213, 0.02224299, -0.11780344, -0.43392354, 0.00000000, 0.00000000, 0.00000000, -0.55731411, 0.56459015, 0.48061487, 0.37369545
424168846.839335, 0.52198792, -0.09313965, 0.10388184, 2.15117556, 4.71890946, 0.34332487, -182.56817627, 139.79211426, 195.20643616, 0.93085724, -0.12133577, 0.34464827, -0.16712433, -0.05520843, -0.54200548, 0.00000000, 0.00000000, 0.00000000, -0.57183906, 0.58764294, 0.44889258, 0.35520602
424168846.855192, 0.37086487, -0.02818298, 0.36276245, 2.37380837, 4.99022592, -0.13748729, -180.51493835, 139.79211426, 193.87510681, 0.90239590, -0.11505962, 0.41526246, -0.50903958, 0.08570171, -0.06337953, 0.00000000, 0.00000000, 0.00000000, -0.57993793, 0.60934656, 0.41931784, 0.34138148
424168846.870961, 0.44157410, -0.11711121, 0.43827820, 2.33129633, 5.36638678, -0.69846060, -180.51493835, 139.79211426, 193.87510681, 0.86743712, -0.09947457, 0.48750138, -0.47661379, 0.04707589, 0.01854110, 0.00000000, 0.00000000, 0.00000000, -0.58903035, 0.62991582, 0.38561807, 0.32794514
424168846.886547, 0.76631165, -0.14501953, 0.18891907, 2.10942252, 3.18611724, -0.86869731, -178.80389404, 139.79211426, 191.54527283, 0.82368505, -0.07364813, 0.56224447, -0.38211095, -0.04346307, -0.12396630, 0.00000000, 0.00000000, 0.00000000, -0.60106496, 0.64795305, 0.34745442, 0.31329407
424168846.902478, 0.76631165, -0.14501953, 0.18891907, 2.05356405, 1.29839756, -0.38869049, -179.31719971, 137.56776428, 192.37736511, 0.78689080, -0.04234269, 0.61563784, -0.02057916, -0.10267684, -0.42671877, 0.00000000, 0.00000000, 0.00000000, -0.61062905, 0.65950822, 0.31468917, 0.30520780
424168846.918092, 0.98275757, -0.05857849, 0.47625732, 1.78327184, 0.62934092, 0.09778648, -177.60615540, 137.90997314, 191.37886047, 0.76868445, -0.01526303, 0.63944608, 0.16289516, -0.10564762, -0.34141141, 0.00000000, 0.00000000, 0.00000000, -0.61307002, 0.66623433, 0.29365171, 0.30666862
424168846.933506, 0.86114502, -0.04191589, 1.04472351, 1.44440164, 1.65869316, 0.14868056, -177.26394653, 137.56776428, 191.04602051, 0.76184863, 0.00422110, 0.64774138, 0.17563613, -0.02675833, 0.20215793, 0.00000000, 0.00000000, 0.00000000, -0.61010068, 0.67204750, 0.28036413, 0.31229036
424168846.949750, 0.75303650, -0.02362061, 0.90417480, 1.32438868, 2.39770838, -0.12654729, -176.92173767, 137.22555542, 190.38035583, 0.74845630, 0.01755033, 0.66295189, 0.06473038, -0.07029996, 0.28881508, 0.00000000, 0.00000000, 0.00000000, -0.60808467, 0.67949170, 0.26651371, 0.31224109
424168846.965295, 0.65530396, -0.04486084, 0.74801636, 0.92896438, 2.28438102, -0.30598496, -176.92173767, 137.22555542, 190.38035583, 0.72532284, 0.03212473, 0.68765891, 0.02771365, -0.05574534, 0.21651590, 0.00000000, 0.00000000, 0.00000000, -0.60913581, 0.68759219, 0.24870630, 0.30710865
424168846.981834, 0.73736572, 0.02751160, 0.66070557, 0.58236196, 1.04523054, -0.15570890, -176.57952881, 136.19892883, 190.04753113, 0.69793332, 0.04655052, 0.71464825, -0.04262937, -0.09141136, 0.03336811, 0.00000000, 0.00000000, 0.00000000, -0.61255523, 0.69433437, 0.23048522, 0.29925313
424168846.997045, 0.73736572, 0.02751160, 0.66070557, 0.39774844, 0.32205447, 0.14686561, -174.52629089, 137.22555542, 190.38035583, 0.68117207, 0.05650347, 0.72993970, 0.00388653, -0.02098101, -0.07159925, 0.00000000, 0.00000000, 0.00000000, -0.61468893, 0.69794511, 0.21924036, 0.29489627
424168847.013184, 0.70576477, 0.10050964, 0.89196777, 0.04410807, 0.25186526, -0.00348182, -176.06622314, 137.73886108, 190.54678345, 0.67520595, 0.06102162, 0.73510087, 0.06081697, -0.04483204, 0.01891222, 0.00000000, 0.00000000, 0.00000000, -0.61404372, 0.70035757, 0.21432128, 0.29413596
424168847.029576, 0.69340515, 0.24508667, 0.89347839, 0.02380014, 0.84407053, -0.52802788, -175.03959656, 135.68562317, 192.21093750, 0.67298257, 0.06140528, 0.73710501, -0.00496806, 0.11681738, 0.19694647, 0.00000000, 0.00000000, 0.00000000, -0.61344649, 0.70159527, 0.21285826, 0.29349420
424168847.044456, 0.87265015, 0.17774963, 0.98326111, -0.03764272, 1.47484423, -0.89057944, -174.35517883, 134.31678772, 190.87960815, 0.66497916, 0.06491598, 0.74403536, 0.02842600, 0.18017069, 0.14944302, 0.00000000, 0.00000000, 0.00000000, -0.61630425, 0.70156024, 0.20887593, 0.29043615
424168847.062334, 0.93881226, 0.03187561, 0.74444580, -0.03715216, 1.62319083, -0.68209015, -173.67076111, 136.37004089, 190.21394348, 0.64949250, 0.07285468, 0.75686967, 0.22315763, 0.10489495, 0.22639146, 0.00000000, 0.00000000, 0.00000000, -0.62268376, 0.70049965, 0.20114968, 0.28478761
424168847.076257, 0.93881226, 0.03187561, 0.74444580, 0.05726089, 0.79671766, -0.22469596, -173.67076111, 136.37004089, 190.21394348, 0.62836957, 0.08003896, 0.77378643, 0.30589554, 0.01554209, 0.10380757, 0.00000000, 0.00000000, 0.00000000, -0.62962072, 0.70033632, 0.19144375, 0.27650693
424168847.091790, 0.78425598, 0.12034607, 0.68815613, 0.42774628, 0.62593047, 0.04633900, -172.81524658, 135.85671997, 190.71319580, 0.61448997, 0.08349403, 0.78449398, 0.27711159, -0.03584084, -0.12726744, 0.00000000, 0.00000000, 0.00000000, -0.63318586, 0.70094412, 0.18524114, 0.27099580
424168847.108708, 0.71626282, 0.16473389, 0.98858643, 0.56992659, 1.27438836, 0.08541903, -173.49966431, 135.17230225, 191.04602051, 0.60736287, 0.08723874, 0.78961998, 0.10127053, 0.08396487, 0.08592933, 0.00000000, 0.00000000, 0.00000000, -0.63338228, 0.70259297, 0.18070851, 0.26932219
424168847.123413, 0.62342834, 0.25807190, 0.84329224, 0.98538718, 1.90042163, -0.05342488, -171.61750793, 133.29016113, 189.88111877, 0.59474421, 0.09253050, 0.79857212, 0.12151860, 0.07220338, 0.19001430, 0.00000000, 0.00000000, 0.00000000, -0.63313885, 0.70598956, 0.17304288, 0.26602651
424168847.139556, 0.52841187, 0.25891113, 1.03564453, 1.15461908, 2.00496988, -0.17561230, -169.56427002, 134.31678772, 190.87960815, 0.57255459, 0.10298922, 0.81337231, 0.05087378, 0.15508269, 0.02991994, 0.00000000, 0.00000000, 0.00000000, -0.63355082, 0.71084422, 0.15966557, 0.26042419
424168847.155552, 0.52841187, 0.25891113, 1.03564453, 1.13175664, 2.17865566, -0.23463674, -169.05094910, 134.48788452, 189.71469116, 0.54682255, 0.11860561, 0.82880503, 0.03349973, 0.11682224, 0.09947864, 0.00000000, 0.00000000, 0.00000000, -0.63430088, 0.71558712, 0.14325057, 0.25510144
424168847.170925, 0.47500610, 0.30439758, 1.02433777, 1.09976862, 2.20594880, -0.38116360, -169.05094910, 134.48788452, 189.71469116, 0.51854378, 0.13506080, 0.84431684, -0.03276497, 0.16956566, 0.18795550, 0.00000000, 0.00000000, 0.00000000, -0.63534487, 0.72006619, 0.12590104, 0.24897893
424168847.186659, 0.39324951, 0.23175049, 0.97779846, 0.93567156, 1.86430225, -0.46888839, -165.97106934, 133.46125793, 189.71469116, 0.48763192, 0.15246584, 0.85963321, -0.03412546, 0.09550475, 0.13839839, 0.00000000, 0.00000000, 0.00000000, -0.63698122, 0.72392785, 0.10767614, 0.24205215
424168847.202945, 0.30839539, 0.31349182, 1.00817871, 0.81718033, 1.52171160, -0.47933651, -166.31327820, 133.80346680, 189.38186646, 0.45952705, 0.16894591, 0.87194735, -0.06627753, 0.06280458, 0.10585111, 0.00000000, 0.00000000, 0.00000000, -0.63909456, 0.72631385, 0.09133456, 0.23597527
424168847.218157, 0.28800964, 0.28303528, 1.02203369, 0.52747154, 1.05831838, -0.54596347, -166.48439026, 134.31678772, 188.54977417, 0.43557563, 0.18403818, 0.88113779, -0.12718023, 0.12945364, 0.12704091, 0.00000000, 0.00000000, 0.00000000, -0.64116895, 0.72764777, 0.07727376, 0.23121390
424168847.233686, 0.28800964, 0.28303528, 1.02203369, 0.31269666, 0.79305981, -0.59453340, -165.79997253, 132.94795227, 189.21545410, 0.41729456, 0.19608939, 0.88736361, -0.12928493, 0.08694588, 0.13467008, 0.00000000, 0.00000000, 0.00000000, -0.64361073, 0.72763111, 0.06670390, 0.22774718
424168847.249854, 0.29930115, 0.24923706, 0.96975708, 0.02871660, 0.60135749, -0.70195547, -165.79997253, 133.29016113, 187.55128479, 0.40319201, 0.20491609, 0.89187759, -0.09461351, 0.08004179, 0.08509692, 0.00000000, 0.00000000, 0.00000000, -0.64655810, 0.72656824, 0.05909554, 0.22487537
424168847.265631, 0.29216003, 0.26348877, 0.92495728, -0.14696228, 0.67202207, -0.94702408, -165.79997253, 133.29016113, 187.55128479, 0.39194274, 0.21051538, 0.89558035, -0.09750915, 0.04715979, 0.07426828, 0.00000000, 0.00000000, 0.00000000, -0.65028052, 0.72451737, 0.05399438, 0.22202350
424168847.281594, 0.36393738, 0.28030396, 0.65847778, 0.27013748, 1.15609527, -1.20228141, -164.08892822, 132.26353455, 187.88410950, 0.38037211, 0.21391408, 0.89975435, -0.08821206, 0.04957469, 0.02520295, 0.00000000, 0.00000000, 0.00000000, -0.65545654, 0.72128627, 0.05001915, 0.21822219
424168847.297644, 0.44538879, 0.21853638, 0.80708313, 0.73395734, 1.46666779, -1.15617517, -162.72009277, 132.94795227, 188.54977417, 0.36182073, 0.22137953, 0.90558094, 0.00211666, 0.05892441, -0.24710317, 0.00000000, 0.00000000, 0.00000000, -0.66199051, 0.71732771, 0.04235989, 0.21310833
424168847.313099, 0.44538879, 0.21853638, 0.80708313, 0.88919220, 1.38488877, -0.83818095, -163.91783142, 133.46125793, 189.38186646, 0.33767009, 0.23644920, 0.91108215, 0.10771871, -0.01791282, -0.10399903, 0.00000000, 0.00000000, 0.00000000, -0.66799433, 0.71366985, 0.02972925, 0.20874648
424168847.329680, 0.40101624, 0.29617310, 0.91484070, 0.84968208, 1.17401995, -0.61632152, -163.40451050, 132.60574341, 188.54977417, 0.31341711, 0.25339940, 0.91518217, 0.13337550, 0.00868555, -0.05507478, 0.00000000, 0.00000000, 0.00000000, -0.67216142, 0.71118924, 0.01590029, 0.20531946
424168847.344770, 0.19100952, 0.24717712, 1.03955078, 0.65426997, 0.99808274, -0.73884984, -161.52236938, 132.77684021, 190.04753113, 0.29279545, 0.26913458, 0.91751695, -0.01285771, 0.01266472, 0.09256909, 0.00000000, 0.00000000, 0.00000000, -0.67440847, 0.70988147, 0.00334290, 0.20305255
424168847.360684, 0.30191040, 0.25471497, 1.06066895, 0.40939710, 0.75132355, -0.84329156, -161.52236938, 132.77684021, 190.04753113, 0.27436304, 0.28227279, 0.91926438, -0.08335350, -0.03509567, 0.12028640, 0.00000000, 0.00000000, 0.00000000, -0.67698691, 0.70804019, -0.00735714, 0.20078267
424168847.376110, 0.38429260, 0.28373718, 1.00025940, 0.15844903, 0.52054892, -0.82066667, -160.32463074, 131.92132568, 190.21394348, 0.25870022, 0.29280719, 0.92050970, 0.04321019, -0.03809224, 0.14015923, 0.00000000, 0.00000000, 0.00000000, -0.68055984, 0.70504834, -0.01581990, 0.19873317
424168847.392047, 0.38429260, 0.28373718, 1.00025940, 0.08392180, 0.59762826, -0.68980293, -161.35125732, 131.57911682, 190.87960815, 0.24624217, 0.29922387, 0.92186219, 0.13805044, -0.01548670, 0.07839723, 0.00000000, 0.00000000, 0.00000000, -0.68461992, 0.70158866, -0.02151548, 0.19648409
424168847.408563, 0.43931580, 0.26728821, 1.01628113, -0.05217532, 0.45982965, -0.43979735, -160.49574280, 131.75021362, 192.04452515, 0.23482198, 0.30329087, 0.92351139, 0.19040996, -0.01197007, 0.09926998, 0.00000000, 0.00000000, 0.00000000, -0.68835074, 0.69851912, -0.02610569, 0.19381124
424168847.423588, 0.34408569, 0.21020508, 0.94343567, -0.14477370, 0.17112621, -0.20466100, -159.98242188, 131.57911682, 191.87811279, 0.22476663, 0.30492637, 0.92547280, 0.17048179, -0.08922812, 0.08040185, 0.00000000, 0.00000000, 0.00000000, -0.69097908, 0.69662351, -0.02966017, 0.19074560
424168847.439780, 0.22485352, 0.28831482, 0.90083313, 0.00317289, 0.16367176, -0.14621101, -159.98242188, 130.55249023, 190.87960815, 0.21969205, 0.30373520, 0.92708164, 0.12439364, -0.09353012, 0.01635405, 0.00000000, 0.00000000, 0.00000000, -0.69249037, 0.69569958, -0.03070644, 0.18845770
424168847.455386, 0.06462097, 0.29667664, 1.03694153, 0.15239859, 0.55299049, -0.29295012, -159.64021301, 131.92132568, 191.87811279, 0.21725269, 0.30314130, 0.92785054, 0.00760083, -0.01482647, -0.02701741, 0.00000000, 0.00000000, 0.00000000, -0.69321602, 0.69525306, -0.03120411, 0.18735270
424168847.471256, 0.06462097, 0.29667664, 1.03694153, 0.07549156, 0.70160633, -0.49145895, -159.64021301, 131.92132568, 191.87811279, 0.20584242, 0.30610716, 0.92947692, -0.14122145, -0.00943052, 0.10746463, 0.00000000, 0.00000000, 0.00000000, -0.69447021, 0.69458590, -0.03610630, 0.18427665
424168847.486781, -0.01229858, 0.28016663, 0.99356079, 0.05732002, 0.56061538, -0.65810972, -158.44248962, 132.09242249, 190.71319580, 0.19391619, 0.30882528, 0.93114096, -0.18514238, -0.02443198, 0.11628338, 0.00000000, 0.00000000, 0.00000000, -0.69631537, 0.69333641, -0.04095662, 0.18097537
424168847.502938, 0.12820435, 0.28019714, 0.88909912, 0.09302661, 0.29545589, -0.65750864, -157.07365417, 132.09242249, 190.04753113, 0.18180694, 0.31110358, 0.93282408, -0.15890349, -0.04071784, -0.01845642, 0.00000000, 0.00000000, 0.00000000, -0.69922978, 0.69100634, -0.04545149, 0.17754468
424168847.518529, 0.33958435, 0.24757385, 0.85462952, 0.06171769, 0.07620076, -0.46363637, -158.61360168, 132.60574341, 189.21545410, 0.17301430, 0.31407300, 0.93350106, -0.04480995, -0.03387585, -0.04440193, 0.00000000, 0.00000000, 0.00000000, -0.70253924, 0.68788745, -0.04887380, 0.17567250
424168847.533825, 0.40130615, 0.25234985, 0.85105896, 0.10046269, 0.12897876, -0.19698604, -157.24476624, 132.94795227, 188.88261414, 0.16851448, 0.31635746, 0.93355280, 0.17106988, -0.06878362, -0.07892328, 0.00000000, 0.00000000, 0.00000000, -0.70517234, 0.68520681, -0.05065212, 0.17509416
424168847.550159, 0.26580811, 0.30548096, 0.78111267, 0.28799637, 0.39710342, -0.08580279, -156.73144531, 131.75021362, 188.38336182, 0.16584940, 0.31816608, 0.93341541, 0.23545675, -0.06581623, -0.08235645, 0.00000000, 0.00000000, 0.00000000, -0.70640795, 0.68388267, -0.05194483, 0.17491150
424168847.565842, 0.26580811, 0.30548096, 0.78111267, 0.60782577, 0.74557458, -0.07897444, -156.73144531, 131.75021362, 188.38336182, 0.16112554, 0.32126731, 0.93318051, 0.18549311, -0.04189413, -0.11804075, 0.00000000, 0.00000000, 0.00000000, -0.70645444, 0.68374877, -0.05474826, 0.17439142
424168847.581861, 0.18626404, 0.30935669, 0.79585266, 0.73635179, 0.70325376, -0.01316241, -157.24476624, 131.92132568, 188.54977417, 0.15138124, 0.32876256, 0.93220109, 0.05131651, -0.01243260, -0.14039202, 0.00000000, 0.00000000, 0.00000000, -0.70576016, 0.68410756, -0.06110653, 0.17368201
424168847.597439, 0.13739014, 0.30691528, 1.01461792, 0.39327646, 0.38081739, 0.01744530, -156.90255737, 132.60574341, 191.21244812, 0.14026059, 0.33909053, 0.93023896, 0.03668033, -0.04451961, -0.11871555, 0.00000000, 0.00000000, 0.00000000, -0.70452892, 0.68465940, -0.06908154, 0.17351728
424168847.613542, 0.19671631, 0.41780090, 1.17823792, -0.55721905, -0.13332397, 0.22357051, -157.24476624, 131.92132568, 190.21394348, 0.13241130, 0.34765586, 0.92822552, 0.00497884, -0.04074059, 0.08639239, 0.00000000, 0.00000000, 0.00000000, -0.70325292, 0.68523579, -0.07525449, 0.17385050
424168847.630340, 0.12838745, 0.35572815, 0.77183533, -0.35192129, -0.36605123, 0.33472366, -158.95579529, 130.89469910, 192.87660217, 0.13346787, 0.34314555, 0.92975128, 0.06324845, 0.07465536, 0.24848662, 0.00000000, 0.00000000, 0.00000000, -0.70265256, 0.68640733, -0.07345821, 0.17241880
424168847.645115, 0.12838745, 0.35572815, 0.77183533, 0.02378949, -0.26634061, 0.36940654, -157.92918396, 130.21028137, 193.54226685, 0.13936099, 0.33491999, 0.93188363, 0.02047483, 0.07090276, -0.06918222, 0.00000000, 0.00000000, 0.00000000, -0.70171536, 0.68814051, -0.06867922, 0.17129316
424168847.660734, 0.10923767, 0.40353394, 0.85525513, 0.21589634, -0.14002049, 0.20126627, -157.41586304, 130.03918457, 193.04302979, 0.14618088, 0.33270359, 0.93163270, -0.02842881, -0.00355626, -0.12596862, 0.00000000, 0.00000000, 0.00000000, -0.69985613, 0.68994039, -0.06587177, 0.17275580
424168847.676454, 0.15332031, 0.38641357, 1.18174744, -0.10283370, -0.29528278, 0.10456503, -157.41586304, 130.03918457, 193.04302979, 0.15032467, 0.33450660, 0.93032670, -0.02807126, 0.08147850, 0.04554913, 0.00000000, 0.00000000, 0.00000000, -0.69819938, 0.69114469, -0.06539612, 0.17481414
424168847.692141, 0.12779236, 0.40490723, 1.22898865, -0.60880715, -0.39850291, -0.04792385, -159.64021301, 131.92132568, 191.87811279, 0.15461072, 0.33474472, 0.92953831, -0.00129041, 0.05166886, 0.25220910, 0.00000000, 0.00000000, 0.00000000, -0.69739209, 0.69167437, -0.06411381, 0.17640935
424168847.708444, -0.00216675, 0.38429260, 0.95439148, -0.61470685, -0.21857389, -0.21607185, -157.24476624, 131.57911682, 192.54377747, 0.16036879, 0.32771346, 0.93106699, -0.03257643, 0.07719377, 0.29792166, 0.00000000, 0.00000000, 0.00000000, -0.69806744, 0.69154562, -0.05938716, 0.17589676
424168847.723797, -0.00216675, 0.38429260, 0.95439148, -0.47429408, 0.11777643, -0.44293083, -156.21813965, 131.92132568, 192.21093750, 0.16398737, 0.31833720, 0.93368602, -0.09333917, 0.06491780, 0.13738942, 0.00000000, 0.00000000, 0.00000000, -0.69982815, 0.69071236, -0.05436067, 0.17378697
424168847.739869, -0.08586121, 0.36720276, 0.71377563, -0.17907122, 0.28424131, -0.63493009, -156.04702759, 131.75021362, 191.71170044, 0.16249102, 0.31147823, 0.93625742, -0.22962970, 0.04206792, -0.08037670, 0.00000000, 0.00000000, 0.00000000, -0.70240013, 0.68903032, -0.05189611, 0.17081591
424168847.755347, -0.04084778, 0.32394409, 0.56808472, 0.19686859, 0.22800574, -0.71458098, -156.38923645, 133.80346680, 190.71319580, 0.15612446, 0.30852601, 0.93831599, -0.23942219, 0.05309205, -0.31575739, 0.00000000, 0.00000000, 0.00000000, -0.70569749, 0.68640297, -0.05241484, 0.16761473
424168847.771516, 0.16485596, 0.28977966, 0.65946960, 0.49680871, 0.03228683, -0.57505291, -156.21813965, 133.29016113, 191.21244812, 0.14906161, 0.31099510, 0.93864942, -0.18990938, 0.01294899, -0.37056467, 0.00000000, 0.00000000, 0.00000000, -0.70914574, 0.68296194, -0.05503389, 0.16627259
424168847.787246, 0.23773193, 0.31881714, 0.90748596, 0.42234246, 0.21044405, -0.33076834, -156.21813965, 133.29016113, 191.21244812, 0.14451350, 0.31861183, 0.93680435, 0.02034246, -0.02883216, -0.27733472, 0.00000000, 0.00000000, 0.00000000, -0.71185782, 0.67945612, -0.05865832, 0.16780058
424168847.803062, 0.23773193, 0.31881714, 0.90748596, 0.25002582, 0.57053619, -0.19969154, -157.41586304, 132.77684021, 190.71319580, 0.14127466, 0.32634959, 0.93463224, 0.07700232, -0.07667001, -0.13295072, 0.00000000, 0.00000000, 0.00000000, -0.71332023, 0.67711917, -0.06213247, 0.16977466
424168847.818886, 0.34042358, 0.40505981, 0.66860962, 0.65247553, 0.66587363, -0.09264205, -156.21813965, 132.60574341, 189.54827881, 0.13342448, 0.33064106, 0.93427747, 0.14860372, 0.05459760, -0.12115186, 0.00000000, 0.00000000, 0.00000000, -0.71383756, 0.67644266, -0.06638981, 0.16868211
424168847.834890, 0.21459961, 0.30566406, 0.83110046, 0.58201575, 0.32940160, -0.01403193, -155.36260986, 133.46125793, 190.71319580, 0.12303718, 0.33844984, 0.93290597, 0.22229974, 0.05217517, -0.22947580, 0.00000000, 0.00000000, 0.00000000, -0.71335015, 0.67644997, -0.07303810, 0.16796561
424168847.850183, 0.35505676, 0.43292236, 1.63714600, 0.07718134, 0.95438426, 0.18899389, -157.41586304, 131.06581116, 191.37886047, 0.11693781, 0.34807530, 0.93014467, 0.09766180, -0.04241125, -0.09904422, 0.00000000, 0.00000000, 0.00000000, -0.71231659, 0.67651860, -0.07884522, 0.16944348
424168847.865491, 0.22850037, 0.58697510, 1.34649658, 0.18075913, 2.95565874, 0.37828499, -154.33598328, 130.38139343, 192.04452515, 0.10965293, 0.35255107, 0.92934597, 0.24540384, 0.08037129, 0.70780003, 0.00000000, 0.00000000, 0.00000000, -0.71080568, 0.67781139, -0.08345896, 0.16840904
424168847.881817, 0.22850037, 0.58697510, 1.34649658, 0.42273581, 1.69124737, 0.35969959, -154.33598328, 130.38139343, 192.04452515, 0.07249206, 0.34171012, 0.93700540, 0.47403198, 0.05509469, 1.12973654, 0.00000000, 0.00000000, 0.00000000, -0.70796519, 0.68358465, -0.09409677, 0.15047626
424168847.897842, 0.06275940, 0.36026001, 0.85542297, -1.07739007, -1.73197909, 0.22054756, -155.53372192, 131.57911682, 191.87811279, 0.03773462, 0.35170311, 0.93535078, 0.10191382, -0.11084311, 0.12669149, 0.00000000, 0.00000000, 0.00000000, -0.70297366, 0.68811584, -0.11134211, 0.14116501
424168847.913242, 0.06536865, 0.45515442, 1.04122925, -0.57719809, -1.36106387, 0.24127148, -157.24476624, 131.92132568, 191.87811279, 0.04931179, 0.34074220, 0.93886268, 0.03537449, 0.04635802, -0.32384190, 0.00000000, 0.00000000, 0.00000000, -0.70277104, 0.68959713, -0.10331828, 0.14104610
424168847.930708, 0.13177490, 0.38717651, 1.10244751, 0.05443341, 1.10954082, 0.34497950, -156.21813965, 131.92132568, 193.20944214, 0.07800717, 0.32782835, 0.94151127, -0.01263851, 0.12732609, 0.09971798, 0.00000000, 0.00000000, 0.00000000, -0.70381156, 0.68949613, -0.08814475, 0.14654306
424168847.944990, 0.10989380, 0.34220886, 0.83003235, -0.68858427, 1.95891530, 0.38050393, -155.70481873, 132.09242249, 192.37736511, 0.07519128, 0.32694310, 0.94204801, 0.05658362, 0.06023340, 0.16039948, 0.00000000, 0.00000000, 0.00000000, -0.70174644, 0.69179184, -0.08929303, 0.14492323
424168847.960828, 0.10989380, 0.34220886, 0.83003235, -0.43311095, 0.73788045, 0.40468277, -155.19151306, 130.55249023, 194.87361145, 0.04954861, 0.31991759, 0.94614887, 0.06034519, 0.02229126, -0.11611651, 0.00000000, 0.00000000, 0.00000000, -0.69872019, 0.69632214, -0.09667559, 0.13258733
424168847.976984, -0.01011658, 0.37380981, 0.60099792, -0.56001857, -0.50274862, 0.31863098, -154.33598328, 131.75021362, 193.70869446, 0.03309266, 0.31066898, 0.94994193, 0.02153380, 0.07591245, -0.41464835, 0.00000000, 0.00000000, 0.00000000, -0.69597654, 0.70041961, -0.09978088, 0.12277138
424168847.992325, -0.06364441, 0.35748291, 0.76200867, -0.66029537, -0.40144224, 0.18892119, -154.33598328, 131.75021362, 193.70869446, 0.03760984, 0.30375198, 0.95200855, -0.08541563, 0.03177354, -0.16630296, 0.00000000, 0.00000000, 0.00000000, -0.69445632, 0.70266256, -0.09596103, 0.12160270
424168848.008499, 0.08671570, 0.43064880, 1.52334595, -0.85187812, 1.11648741, 0.09820540, -154.84930420, 130.55249023, 193.87510681, 0.04684469, 0.29283056, 0.95501614, -0.11048910, 0.06465235, -0.19300748, 0.00000000, 0.00000000, 0.00000000, -0.69408430, 0.70409876, -0.08883173, 0.12083398
424168848.024080, 0.09970093, 0.43528748, 0.98040771, -0.56983445, 1.73564600, 0.05212872, -152.45384216, 133.97457886, 192.54377747, 0.04079091, 0.28356516, 0.95808500, 0.04592479, 0.14708364, 0.56526095, 0.00000000, 0.00000000, 0.00000000, -0.69354412, 0.70571882, -0.08775256, 0.11513896
424168848.040648, 0.09970093, 0.43528748, 0.98040771, -0.81196453, 0.65942825, 0.02581349, -154.50709534, 132.94795227, 190.21394348, 0.01579291, 0.27178982, 0.96222705, 0.08390801, 0.16349764, 0.01818068, 0.00000000, 0.00000000, 0.00000000, -0.69246688, 0.70823946, -0.09252559, 0.10161445
424168848.055556, 0.04916382, 0.30667114, 0.87255859, -1.28738965, -0.55368584, 0.11931308, -154.16488647, 133.29016113, 189.21545410, -0.00085744, 0.26172799, 0.96514130, 0.08987721, 0.00382071, 0.00646210, 0.00000000, 0.00000000, 0.00000000, -0.69182157, 0.70989687, -0.09484971, 0.09183074
424168848.071382, -0.01560974, 0.30654907, 0.95585632, -1.07095987, 0.12177570, 0.25040159, -153.13825989, 135.34341431, 189.88111877, 0.00344606, 0.24402107, 0.96976382, 0.00329833, 0.04835258, -0.01891236, 0.00000000, 0.00000000, 0.00000000, -0.69225177, 0.71110434, -0.08688296, 0.08700258
424168848.087644, -0.00503540, 0.23941040, 0.92202759, -0.96302941, 1.43514183, 0.37936943, -153.48046875, 134.31678772, 190.54678345, 0.00803107, 0.22571476, 0.97416031, -0.02364081, 0.08083431, -0.01830401, 0.00000000, 0.00000000, 0.00000000, -0.69191981, 0.71297065, -0.07870239, 0.08201078
424168848.103033, -0.04080200, 0.29423523, 0.92492676, -1.18063311, 1.73645480, 0.40191548, -153.48046875, 134.31678772, 190.54678345, -0.00686875, 0.21094126, 0.97747463, 0.00183335, 0.02846915, -0.05544702, 0.00000000, 0.00000000, 0.00000000, -0.68980661, 0.71617326, -0.07879170, 0.07109545
424168848.118805, -0.04080200, 0.29423523, 0.92492676, -1.39135626, -0.31366205, 0.33755380, -153.99377441, 135.17230225, 191.37886047, -0.03231052, 0.19384733, 0.98049951, -0.00849148, 0.10038789, -0.05557273, 0.00000000, 0.00000000, 0.00000000, -0.68686252, 0.72004835, -0.08168260, 0.05548163
424168848.134305, -0.00439453, 0.28602600, 1.07746887, -1.04367019, -0.05263818, 0.38511227, -153.99377441, 132.43463135, 189.38186646, -0.03878656, 0.17259751, 0.98422849, -0.06729253, 0.12876357, -0.14226376, 0.00000000, 0.00000000, 0.00000000, -0.68489050, 0.72321452, -0.07629644, 0.04543801
424168848.150561, 0.00067139, 0.19157410, 0.99252319, -1.09589319, 0.29345825, 0.43457330, -155.19151306, 133.63237000, 190.54678345, -0.03384330, 0.15457858, 0.98740065, 0.02844169, 0.02874051, 0.08674178, 0.00000000, 0.00000000, 0.00000000, -0.68321846, 0.72588765, -0.06809349, 0.04077915
424168848.165858, -0.04043579, 0.18345642, 0.91253662, -1.22566583, -0.02951741, 0.37661572, -154.33598328, 135.51451111, 191.04602051, -0.03672213, 0.13840929, 0.98969406, 0.03739352, 0.05316481, 0.00282912, 0.00000000, 0.00000000, 0.00000000, -0.68079116, 0.72895159, -0.06327293, 0.03390429
424168848.181998, -0.00500488, 0.05152893, 1.04908752, -0.92399359, 0.19955226, 0.31142793, -153.48046875, 136.02783203, 191.54527283, -0.03689909, 0.11943419, 0.99215621, -0.00353671, 0.06402223, -0.07961958, 0.00000000, 0.00000000, 0.00000000, -0.67858338, 0.73184882, -0.05644481, 0.02712714
424168848.198408, 0.00839233, 0.03086853, 1.00564575, -0.81097862, 0.03369352, 0.20392490, -153.48046875, 136.02783203, 191.54527283, -0.03769802, 0.10323694, 0.99394214, 0.03269313, -0.05170801, 0.05514538, 0.00000000, 0.00000000, 0.00000000, -0.67671049, 0.73418934, -0.05080694, 0.02115610
424168848.213694, 0.00839233, 0.03086853, 1.00564575, -0.78420959, 0.05960128, 0.07428222, -155.02040100, 135.17230225, 191.71170044, -0.03941973, 0.09036744, 0.99512804, 0.03116473, -0.06506837, 0.02832472, 0.00000000, 0.00000000, 0.00000000, -0.67518377, 0.73599653, -0.04667655, 0.01604000
424168848.230019, 0.00311279, 0.13558960, 0.96858215, -0.73039989, 0.00943372, -0.06449537, -155.19151306, 136.37004089, 192.54377747, -0.03942969, 0.07769822, 0.99619693, 0.06039526, -0.00604295, 0.01922973, 0.00000000, 0.00000000, 0.00000000, -0.67445425, 0.73702776, -0.04200952, 0.01169380
424168848.245940, -0.02238464, 0.03627014, 0.98414612, -0.78671962, 0.15778830, -0.09635876, -154.16488647, 138.42327881, 191.21244812, -0.03978825, 0.06580725, 0.99703878, 0.04714299, 0.00772486, -0.01576130, 0.00000000, 0.00000000, 0.00000000, -0.67448659, 0.73728368, -0.03773349, 0.00753660
424168848.261030, -0.05284119, 0.00134277, 1.02052307, -0.79553149, 0.06727891, -0.01649029, -153.13825989, 136.71224976, 190.87960815, -0.04190566, 0.05360126, 0.99768275, 0.01952101, -0.01733112, -0.01353661, 0.00000000, 0.00000000, 0.00000000, -0.67489071, 0.73713221, -0.03393580, 0.00264556
424168848.277013, -0.01350403, -0.01278687, 1.03616333, -0.65794087, 0.00511300, 0.05723186, -151.59832764, 137.22555542, 189.71469116, -0.04262713, 0.04078285, 0.99825835, -0.01021406, -0.03944008, 0.02226475, 0.00000000, 0.00000000, 0.00000000, -0.67505581, 0.73717625, -0.02944556, -0.00194820
424168848.292502, -0.01350403, -0.01278687, 1.03616333, -0.33098032, -0.01320981, 0.02542200, -155.19151306, 136.71224976, 189.54827881, -0.04312390, 0.02944612, 0.99863571, -0.01426440, 0.06277800, 0.00717790, 0.00000000, 0.00000000, 0.00000000, -0.67462745, 0.73769618, -0.02542477, -0.00597767
424168848.308856, 0.01200867, 0.04177856, 1.00473022, -0.37208808, 0.03762913, -0.09636569, -155.19151306, 136.71224976, 189.54827881, -0.04274641, 0.02271935, 0.99882758, 0.03159223, -0.03951927, 0.05299125, 0.00000000, 0.00000000, 0.00000000, -0.67423555, 0.73811938, -0.02280874, -0.00812164
424168848.324105, -0.00715637, 0.04064941, 0.96661377, -0.47013369, -0.01039405, -0.21108721, -152.96716309, 139.27880859, 189.38186646, -0.04397812, 0.01736215, 0.99888164, 0.04432907, 0.03222891, -0.05021218, 0.00000000, 0.00000000, 0.00000000, -0.67438660, 0.73799968, -0.02124764, -0.01037932
424168848.340202, -0.03199768, 0.01676941, 1.01875305, -0.32116791, 0.02837066, -0.22867100, -154.50709534, 139.10769653, 189.21545410, -0.04388107, 0.00987981, 0.99898791, 0.03672469, 0.03076961, -0.03237414, 0.00000000, 0.00000000, 0.00000000, -0.67524690, 0.73724866, -0.01846656, -0.01284648
424168848.356201, -0.03057861, -0.00082397, 1.00613403, -0.18029814, -0.00303414, -0.27544463, -153.82267761, 137.39665222, 189.54827881, -0.04428293, 0.00359883, 0.99901253, 0.01228525, 0.01317058, 0.01974050, 0.00000000, 0.00000000, 0.00000000, -0.67633757, 0.73625659, -0.01630799, -0.01509224
424168848.371468, -0.03057861, -0.00082397, 1.00613403, -0.21540899, 0.01363459, -0.25341895, -153.82267761, 138.76548767, 189.88111877, -0.04426551, -0.00011476, 0.99901980, 0.01374793, -0.02742736, 0.02312071, 0.00000000, 0.00000000, 0.00000000, -0.67767876, 0.73502476, -0.01496406, -0.01631500
424168848.387365, -0.03605652, 0.01606750, 0.97059631, -0.21134527, -0.00806219, -0.17110331, -153.82267761, 138.76548767, 191.21244812, -0.04438069, -0.00345851, 0.99900872, 0.01339009, 0.00541163, -0.01358085, 0.00000000, 0.00000000, 0.00000000, -0.67905359, 0.73375103, -0.01380643, -0.01746510
424168848.403261, -0.02139282, -0.02040100, 1.02464294, -0.06066095, 0.00419981, -0.13091780, -153.82267761, 138.76548767, 191.21244812, -0.04336202, -0.00797875, 0.99902755, 0.01292074, -0.00845497, -0.00626023, 0.00000000, 0.00000000, 0.00000000, -0.68002158, 0.73286044, -0.01182565, -0.01861106
424168848.418946, -0.02778625, -0.00335693, 1.01382446, -0.01524979, -0.03122343, -0.15664074, -153.99377441, 138.59439087, 188.38336182, -0.04325882, -0.00999399, 0.99901390, 0.02186600, -0.01040701, 0.02562903, 0.00000000, 0.00000000, 0.00000000, -0.68063364, 0.73228738, -0.01106792, -0.01924956
424168848.435449, -0.03012085, 0.00538635, 0.97671509, -0.08175505, 0.01136744, -0.12287106, -155.53372192, 139.10769653, 189.54827881, -0.04131116, -0.00972232, 0.99909902, 0.01352490, 0.00636538, 0.01472544, 0.00000000, 0.00000000, 0.00000000, -0.68135601, 0.73164439, -0.01052190, -0.01843302
424168848.450604, -0.03012085, 0.00538635, 0.97671509, -0.09737529, -0.00118244, -0.08949100, -154.84930420, 137.73886108, 189.88111877, -0.04117442, -0.01089788, 0.99909252, 0.00618601, 0.01565862, -0.02234693, 0.00000000, 0.00000000, 0.00000000, -0.68202827, 0.73101554, -0.01006236, -0.01877442
424168848.466230, -0.01611328, -0.00495911, 0.98280334, -0.10217564, -0.00339180, -0.07328380, -154.33598328, 138.93659973, 189.71469116, -0.04102629, -0.01182952, 0.99908805, 0.00298613, 0.01320282, -0.01486562, 0.00000000, 0.00000000, 0.00000000, -0.68243158, 0.73063750, -0.00968169, -0.01903277
424168848.482146, -0.01234436, -0.01467896, 1.00741577, -0.08202936, 0.00945422, -0.05423687, -153.65156555, 139.62101746, 191.71170044, -0.04120388, -0.01346516, 0.99906003, 0.01749172, 0.01032185, -0.00147091, 0.00000000, 0.00000000, 0.00000000, -0.68268209, 0.73039385, -0.00915144, -0.01965298
424168848.498634, -0.01884460, -0.01202393, 0.99073792, -0.04436746, 0.01163562, -0.04566016, -151.94053650, 138.59439087, 191.71170044, -0.04124763, -0.01502341, 0.99903601, 0.02890327, 0.00034445, 0.00837977, 0.00000000, 0.00000000, 0.00000000, -0.68288251, 0.73019825, -0.00860276, -0.02019882
424168848.513746, -0.03248596, -0.00415039, 0.99288940, -0.02797624, 0.00088364, -0.07127445, -151.94053650, 138.59439087, 191.71170044, -0.03990319, -0.01559190, 0.99908191, 0.02105858, 0.00356797, -0.00834398, 0.00000000, 0.00000000, 0.00000000, -0.68307624, 0.73003274, -0.00794081, -0.01989968
424168848.529829, -0.03248596, -0.00415039, 0.99288940, -0.00450074, 0.00205969, -0.04889564, -154.16488647, 138.42327881, 191.21244812, -0.03939170, -0.01567737, 0.99910086, 0.00962180, 0.01074878, -0.00798147, 0.00000000, 0.00000000, 0.00000000, -0.68329556, 0.72983396, -0.00774063, -0.01973971
424168848.545933, -0.02546692, -0.00186157, 0.99334717, -0.00920069, 0.00327356, -0.04543300, -153.82267761, 138.76548767, 190.21394348, -0.03869806, -0.01480889, 0.99914122, 0.00596796, 0.01065850, -0.00550412, 0.00000000, 0.00000000, 0.00000000, -0.68347829, 0.72967666, -0.00782515, -0.01918755
424168848.562090, -0.01516724, -0.01136780, 0.99098206, 0.02381851, 0.00176434, -0.07188298, -153.13825989, 140.13432312, 190.87960815, -0.03725030, -0.01417122, 0.99920547, 0.01877190, 0.00728951, -0.00916947, 0.00000000, 0.00000000, 0.00000000, -0.68355660, 0.72962532, -0.00756451, -0.01844012
424168848.576778, -0.01936340, -0.00981140, 0.99201965, 0.02382118, 0.00296010, -0.06720753, -151.42721558, 139.44990540, 189.21545410, -0.03623105, -0.01402463, 0.99924505, 0.02106382, 0.00265684, -0.00826297, 0.00000000, 0.00000000, 0.00000000, -0.68381349, 0.72939813, -0.00727562, -0.01801535
424168848.592714, -0.02990723, 0.00849915, 0.99124146, 0.01099513, 0.00642488, -0.08474152, -153.65156555, 139.62101746, 190.38035583, -0.03473784, -0.01358515, 0.99930412, 0.01537444, 0.00377375, -0.00728447, 0.00000000, 0.00000000, 0.00000000, -0.68412334, 0.72912778, -0.00693224, -0.01731715
424168848.609026, -0.02990723, 0.00849915, 0.99124146, 0.02758316, -0.00107485, -0.15103479, -153.65156555, 139.62101746, 190.38035583, -0.03413326, -0.01228209, 0.99934185, 0.00422603, 0.02078124, -0.00810036, 0.00000000, 0.00000000, 0.00000000, -0.68441693, 0.72886513, -0.00720707, -0.01664778
424168848.624239, -0.02653503, 0.03610229, 0.98968506, 0.03740330, 0.00415373, -0.24162781, -154.16488647, 139.10769653, 190.54678345, -0.03386829, -0.01054972, 0.99937063, 0.00657031, 0.03858011, -0.01052480, 0.00000000, 0.00000000, 0.00000000, -0.68499406, 0.72833265, -0.00776038, -0.01595196
424168848.640826, -0.01249695, 0.04187012, 0.99362183, 0.02484809, 0.00473430, -0.34882617, -154.50709534, 139.79211426, 190.54678345, -0.03297910, -0.00708572, 0.99943089, 0.01688107, 0.03755752, -0.00635841, 0.00000000, 0.00000000, 0.00000000, -0.68603829, 0.72736987, -0.00873798, -0.01442864
424168848.655927, -0.00132751, 0.01766968, 0.98861694, 0.02053058, -0.00073743, -0.48397307, -153.99377441, 138.93659973, 187.71769714, -0.03229548, -0.00516263, 0.99946505, 0.01979853, 0.04703274, -0.00584321, 0.00000000, 0.00000000, 0.00000000, -0.68767451, 0.72583489, -0.00923325, -0.01349931
424168848.671676, -0.01992798, -0.07704163, 0.98722839, -0.00402910, 0.00633513, -0.49458603, -152.62495422, 141.33206177, 189.04902649, -0.03049137, -0.00246158, 0.99953198, 0.02916386, 0.02013125, -0.01091506, 0.00000000, 0.00000000, 0.00000000, -0.69007372, 0.72357740, -0.00963233, -0.01188355
424168848.687773, -0.01992798, -0.07704163, 0.98722839, -0.02429389, 0.02492319, -0.33619932, -153.13825989, 138.08106995, 188.54977417, -0.02984621, -0.00386662, 0.99954700, 0.00991823, -0.07317501, -0.01231863, 0.00000000, 0.00000000, 0.00000000, -0.69277210, 0.72099953, -0.00894642, -0.01210163
424168848.703423, -0.04287720, -0.10446167, 0.99186707, -0.01463647, 0.00851386, -0.14782382, -153.13825989, 138.08106995, 188.54977417, -0.03009267, -0.00450102, 0.99953699, -0.00390391, -0.06880220, -0.01169823, 0.00000000, 0.00000000, 0.00000000, -0.69487794, 0.71896671, -0.00883937, -0.01238451
424168848.719220, -0.03884888, -0.00306702, 1.00364685, 0.00599611, -0.00143491, -0.03836976, -154.16488647, 139.44990540, 189.54827881, -0.03024482, -0.00516619, 0.99952918, -0.01743889, -0.07814680, -0.01518469, 0.00000000, 0.00000000, 0.00000000, -0.69593183, 0.71794392, -0.00867169, -0.01265768
424168848.735566, -0.01681519, -0.00592041, 0.98377991, -0.07538717, -0.00545122, -0.00436971, -154.16488647, 139.79211426, 187.88410950, -0.03023288, -0.00517544, 0.99952948, -0.00861600, 0.00210843, 0.00411737, 0.00000000, 0.00000000, 0.00000000, -0.69620921, 0.71767505, -0.00866910, -0.01265326
424168848.750697, -0.01768494, 0.00039673, 0.99284363, -0.03297233, -0.00577986, -0.02022671, -154.50709534, 138.42327881, 190.21394348, -0.03007109, -0.00606569, 0.99952936, 0.01325590, 0.00014528, -0.01574945, 0.00000000, 0.00000000, 0.00000000, -0.69613157, 0.71775031, -0.00829184, -0.01290606
424168848.766119, -0.01768494, 0.00039673, 0.99284363, -0.03165859, 0.00117419, -0.02708035, -154.16488647, 139.79211426, 190.54678345, -0.02997138, -0.00701036, 0.99952620, 0.01228644, 0.00740709, -0.00668255, 0.00000000, 0.00000000, 0.00000000, -0.69604858, 0.71782969, -0.00791652, -0.01320008
424168848.782916, -0.01701355, -0.01548767, 0.99444580, -0.04347104, -0.00468423, -0.04126808, -155.02040100, 138.93659973, 190.71319580, -0.02992757, -0.00765854, 0.99952275, 0.01486715, 0.00118881, -0.00600772, 0.00000000, 0.00000000, 0.00000000, -0.69607578, 0.71780211, -0.00766910, -0.01340970
424168848.798568, -0.02655029, -0.03314209, 0.98960876, -0.02471866, -0.00705631, -0.03063674, -155.02040100, 138.93659973, 190.71319580, -0.02993291, -0.00841840, 0.99951649, 0.00313848, -0.02444903, -0.01239488, 0.00000000, 0.00000000, 0.00000000, -0.69611527, 0.71776163, -0.00739896, -0.01367574
424168848.813956, -0.02917480, -0.00979614, 0.98432922, -0.03301787, -0.00810027, -0.01793825, -153.13825989, 139.44990540, 192.54377747, -0.02979415, -0.00903530, 0.99951524, 0.00324386, -0.02410679, -0.00990645, 0.00000000, 0.00000000, 0.00000000, -0.69620272, 0.71767638, -0.00713090, -0.01383983
424168848.831075, -0.01629639, 0.01237488, 0.99641418, -0.02946255, -0.00576335, -0.01437042, -154.67819214, 140.98985291, 193.04302979, -0.02962216, -0.00966508, 0.99951446, 0.00044735, -0.00013106, -0.01518522, 0.00000000, 0.00000000, 0.00000000, -0.69620458, 0.71767430, -0.00684501, -0.01399737
424168848.846277, -0.01629639, 0.01237488, 0.99641418, -0.02697329, -0.00121387, -0.03172677, -153.99377441, 137.90997314, 190.71319580, -0.02948336, -0.01024029, 0.99951279, 0.01318698, 0.02261516, -0.00309863, 0.00000000, 0.00000000, 0.00000000, -0.69614464, 0.71773188, -0.00658906, -0.01414838
424168848.862597, -0.00856018, -0.00175476, 0.99574280, -0.01500824, 0.00797457, -0.04541515, -153.48046875, 138.42327881, 189.88111877, -0.02940897, -0.01079454, 0.99950916, 0.01863626, 0.02716722, 0.00139109, 0.00000000, 0.00000000, 0.00000000, -0.69615231, 0.71772317, -0.00636438, -0.01431458
424168848.877060, -0.02331543, -0.01826477, 0.98796082, 0.02862073, 0.00637241, -0.07757495, -152.62495422, 140.30543518, 189.71469116, -0.02940775, -0.01132633, 0.99950331, 0.02196146, 0.00442936, -0.00478287, 0.00000000, 0.00000000, 0.00000000, -0.69629571, 0.71758201, -0.00617599, -0.01449807
424168848.892899, -0.03666687, -0.04759216, 0.98829651, 0.04981603, 0.00622940, -0.08201205, -152.79605103, 139.79211426, 187.88410950, -0.02945384, -0.01119458, 0.99950343, 0.00613841, -0.00707019, -0.01154264, 0.00000000, 0.00000000, 0.00000000, -0.69653111, 0.71735357, -0.00624407, -0.01446669
424168848.909063, -0.02819824, -0.01863098, 0.98399353, 0.05054094, -0.00257980, 0.00513963, -152.79605103, 139.79211426, 187.88410950, -0.03019511, -0.01037027, 0.99949020, -0.00647176, -0.03722189, -0.01119372, 0.00000000, 0.00000000, 0.00000000, -0.69691771, 0.71697338, -0.00680588, -0.01444184
424168848.925024, -0.00682068, 0.00410461, 0.98880005, 0.02477059, 0.00215796, -0.00668933, -153.82267761, 139.10769653, 187.21844482, -0.03010306, -0.01211488, 0.99947339, 0.00190482, -0.00651610, -0.01547985, 0.00000000, 0.00000000, 0.00000000, -0.69687683, 0.71700724, -0.00614745, -0.01501730
424168848.940403, -0.00682068, 0.00410461, 0.98880005, 0.00959670, 0.00802677, -0.01489639, -153.13825989, 140.13432312, 189.21545410, -0.02977225, -0.01131259, 0.99949270, 0.00902030, 0.00786410, -0.00243764, 0.00000000, 0.00000000, 0.00000000, -0.69674399, 0.71714306, -0.00631705, -0.01462018
424168848.956255, -0.01066589, -0.00631714, 0.98999023, 0.00353535, -0.00603419, -0.02916108, -153.13825989, 139.79211426, 188.54977417, -0.02827169, -0.01024613, 0.99954778, 0.02052023, 0.01338944, -0.00874881, 0.00000000, 0.00000000, 0.00000000, -0.69671220, 0.71719313, -0.00617579, -0.01371053
424168848.972043, -0.03112793, -0.02738953, 0.98667908, 0.01298904, -0.00255504, -0.02434875, -154.16488647, 139.44990540, 189.88111877, -0.02735263, -0.01024225, 0.99957335, 0.00803501, -0.00175116, -0.01257386, 0.00000000, 0.00000000, 0.00000000, -0.69675344, 0.71716200, -0.00585759, -0.01337915
424168848.988069, -0.03489685, -0.02293396, 0.99449158, 0.02003789, -0.00377423, -0.02662309, -153.82267761, 138.76548767, 189.21545410, -0.02742011, -0.01085775, 0.99956501, -0.00370782, -0.01653178, -0.01288595, 0.00000000, 0.00000000, 0.00000000, -0.69676548, 0.71714739, -0.00566062, -0.01361774
424168849.004632, -0.01432800, -0.00648499, 0.99501038, 0.04594166, -0.00154383, -0.02049649, -154.67819214, 140.30543518, 190.38035583, -0.02796480, -0.01155737, 0.99954212, -0.00693205, -0.01137659, -0.00505052, 0.00000000, 0.00000000, 0.00000000, -0.69676703, 0.71713789, -0.00559964, -0.01405692
424168849.019359, -0.01432800, -0.00648499, 0.99501038, 0.04601197, 0.00433536, -0.01341434, -154.67819214, 140.30543518, 190.38035583, -0.02787057, -0.01125429, 0.99954820, 0.00013009, -0.00524046, -0.00479721, 0.00000000, 0.00000000, 0.00000000, -0.69678516, 0.71712240, -0.00567583, -0.01391736
424168849.035076, -0.01071167, -0.00437927, 0.99324036, 0.04965384, 0.01252245, -0.00742010, -154.50709534, 139.10769653, 190.87960815, -0.02694531, -0.01041871, 0.99958259, 0.01870557, 0.00500184, -0.00686106, 0.00000000, 0.00000000, 0.00000000, -0.69674396, 0.71717443, -0.00565216, -0.01329461
424168849.051118, -0.02996826, -0.01594543, 0.98953247, 0.04712756, 0.00083410, -0.01229715, -154.33598328, 138.25218201, 191.04602051, -0.02637027, -0.00956487, 0.99960649, 0.01037906, 0.00164556, -0.00786149, 0.00000000, 0.00000000, 0.00000000, -0.69668257, 0.71724239, -0.00575682, -0.01279129
424168849.066395, -0.03649902, -0.01872253, 0.99005127, 0.03420644, -0.00033476, -0.02409016, -155.19151306, 138.08106995, 191.21244812, -0.02651746, -0.00908351, 0.99960709, -0.00345080, -0.00686193, -0.01007461, 0.00000000, 0.00000000, 0.00000000, -0.69657390, 0.71734814, -0.00597884, -0.01267728
424168849.082825, -0.01866150, -0.00930786, 0.98750305, -0.00938471, -0.00480461, -0.03043913, -152.96716309, 137.90997314, 191.71170044, -0.02707821, -0.00915884, 0.99959135, -0.00942082, -0.00956369, -0.00954009, 0.00000000, 0.00000000, 0.00000000, -0.69652458, 0.71739054, -0.00614634, -0.01290514
424168849.098515, -0.01866150, -0.00930786, 0.98750305, -0.01284016, 0.00108657, -0.02455754, -153.82267761, 138.76548767, 192.21093750, -0.02703064, -0.00922242, 0.99959207, -0.00305969, -0.00254211, -0.01303506, 0.00000000, 0.00000000, 0.00000000, -0.69655190, 0.71736426, -0.00610745, -0.01290999
424168849.114150, -0.00794983, -0.00711060, 0.99147034, -0.04571183, 0.00713701, -0.01898035, -153.82267761, 138.76548767, 192.21093750, -0.02639825, -0.00959094, 0.99960548, 0.01490838, -0.00089185, 0.00059287, 0.00000000, 0.00000000, 0.00000000, -0.69656627, 0.71735499, -0.00575515, -0.01281135
424168849.130436, -0.02134705, -0.01620483, 1.00869751, -0.09136746, 0.02258068, -0.01570706, -154.84930420, 140.13432312, 190.87960815, -0.02567755, -0.01034034, 0.99961680, 0.01130377, -0.00111901, 0.01057607, 0.00000000, 0.00000000, 0.00000000, -0.69654673, 0.71737790, -0.00523484, -0.01281397
424168849.145771, -0.03401184, -0.02357483, 0.96153259, -0.10272425, -0.02763323, -0.02946681, -154.67819214, 139.96322632, 189.04902649, -0.02577413, -0.01200824, 0.99959564, 0.00442708, -0.00419660, 0.00910184, 0.00000000, 0.00000000, 0.00000000, -0.69651092, 0.71740530, -0.00466954, -0.01342990
424168849.163347, -0.02265930, -0.01791382, 0.95999146, -0.00939963, -0.00597853, -0.03162291, -154.16488647, 140.13432312, 188.88261414, -0.02600808, -0.01431587, 0.99955922, -0.00800376, -0.00925896, -0.03802663, 0.00000000, 0.00000000, 0.00000000, -0.69647098, 0.71743138, -0.00392248, -0.01431796
424168849.177400, -0.02265930, -0.01791382, 0.95999146, 0.07794274, 0.01468281, -0.01058074, -153.30935669, 139.96322632, 188.38336182, -0.02600278, -0.01522791, 0.99954587, -0.00741397, -0.00294531, -0.04347593, 0.00000000, 0.00000000, 0.00000000, -0.69648171, 0.71741632, -0.00359367, -0.01463371
424168849.193029, -0.01486206, -0.01048279, 1.01844788, 0.02721538, 0.00678547, -0.01124174, -153.30935669, 139.62101746, 188.38336182, -0.02573385, -0.01457463, 0.99956256, 0.01108541, -0.00013485, -0.03035481, 0.00000000, 0.00000000, 0.00000000, -0.69650173, 0.71740270, -0.00373471, -0.01430952
424168849.209897, -0.02163696, -0.01373291, 1.00872803, -0.02119823, -0.00585789, -0.02243287, -153.99377441, 140.30543518, 187.38487244, -0.02543262, -0.01384258, 0.99958068, 0.01159290, 0.00043010, 0.00684326, 0.00000000, 0.00000000, 0.00000000, -0.69643296, 0.71747577, -0.00389102, -0.01394678
424168849.224767, -0.03204346, -0.02220154, 0.97726440, -0.01647831, -0.00710771, -0.03171559, -153.99377441, 140.30543518, 187.38487244, -0.02524787, -0.01407462, 0.99958211, 0.00361091, 0.00034171, 0.00914589, 0.00000000, 0.00000000, 0.00000000, -0.69640719, 0.71750129, -0.00374290, -0.01396144
424168849.240611, -0.02835083, -0.01397705, 0.98153687, 0.04489051, 0.00904623, -0.00752796, -153.48046875, 139.79211426, 190.21394348, -0.02534971, -0.01487181, 0.99956805, -0.00669375, -0.00732973, -0.02230361, 0.00000000, 0.00000000, 0.00000000, -0.69641398, 0.71748977, -0.00349252, -0.01427563
424168849.256473, -0.02835083, -0.01397705, 0.98153687, 0.03069080, 0.00085860, -0.02294340, -155.02040100, 137.90997314, 190.38035583, -0.02550578, -0.01472121, 0.99956626, -0.00513387, -0.00574083, -0.03330346, 0.00000000, 0.00000000, 0.00000000, -0.69635927, 0.71754227, -0.00359983, -0.01427946
424168849.272083, -0.01513672, -0.01187134, 0.99696350, -0.00337050, 0.00453776, -0.02440121, -154.84930420, 139.44990540, 189.21545410, -0.02561512, -0.01415554, 0.99957168, 0.00197926, 0.00144497, 0.00740162, 0.00000000, 0.00000000, 0.00000000, -0.69631194, 0.71759007, -0.00383994, -0.01412194
424168849.288114, -0.01817322, -0.01718140, 0.99343872, -0.01288357, -0.00363921, -0.03394811, -153.65156555, 138.25218201, 189.38186646, -0.02516358, -0.01411553, 0.99958366, 0.01054566, 0.00196954, 0.00137762, 0.00000000, 0.00000000, 0.00000000, -0.69631502, 0.71759127, -0.00369707, -0.01394591
424168849.304212, -0.02693176, -0.01988220, 0.98297119, 0.02942420, -0.00497851, -0.02421772, -154.50709534, 138.76548767, 191.54527283, -0.02493131, -0.01455288, 0.99958324, 0.00675809, -0.00262852, -0.00614451, 0.00000000, 0.00000000, 0.00000000, -0.69633565, 0.71757109, -0.00345964, -0.01401476
424168849.319385, -0.03050232, -0.01446533, 0.99302673, 0.02604678, 0.00677774, -0.01358186, -154.50709534, 138.76548767, 191.54527283, -0.02477311, -0.01467089, 0.99958545, -0.00215865, -0.00521132, -0.01661425, 0.00000000, 0.00000000, 0.00000000, -0.69632036, 0.71758670, -0.00336189, -0.01399915
424168849.335776, -0.03050232, -0.01446533, 0.99302673, 0.00368795, 0.00570263, -0.01848873, -154.50709534, 139.79211426, 190.87960815, -0.02505069, -0.01442106, 0.99958217, -0.00545163, -0.00004428, -0.00655543, 0.00000000, 0.00000000, 0.00000000, -0.69628673, 0.71761819, -0.00354757, -0.01401194
424168849.350959, -0.02380371, -0.01704407, 0.99121094, 0.02362996, 0.00209990, -0.01717686, -155.02040100, 139.62101746, 192.71018982, -0.02508112, -0.01437306, 0.99958211, -0.00345282, 0.00033497, -0.00304583, 0.00000000, 0.00000000, 0.00000000, -0.69628033, 0.71762438, -0.00357526, -0.01400617
424168849.366699, -0.01657104, -0.01426697, 0.99046326, 0.04123958, 0.00207593, -0.00535482, -152.62495422, 139.62101746, 192.04452515, -0.02488716, -0.01443185, 0.99958611, 0.01069648, 0.00088205, -0.02287100, 0.00000000, 0.00000000, 0.00000000, -0.69624454, 0.71766050, -0.00348591, -0.01395720
424168849.382684, -0.02140808, -0.01492310, 0.99696350, 0.01294669, -0.00848377, -0.03957883, -153.99377441, 138.93659973, 190.04753113, -0.02487679, -0.01394988, 0.99959320, 0.00830574, -0.00031709, -0.00912993, 0.00000000, 0.00000000, 0.00000000, -0.69615169, 0.71775303, -0.00365347, -0.01378611
424168849.398477, -0.03050232, -0.01541138, 0.98603821, -0.00809707, 0.00459928, -0.01863014, -152.96716309, 139.62101746, 191.04602051, -0.02458910, -0.01380171, 0.99960238, 0.00318102, -0.00112139, -0.00263886, 0.00000000, 0.00000000, 0.00000000, -0.69616792, 0.71774049, -0.00360677, -0.01363116
424168849.414598, -0.03050232, -0.01541138, 0.98603821, 0.01291074, -0.00841958, -0.02910329, -152.96716309, 139.62101746, 191.04602051, -0.02482017, -0.01408672, 0.99959266, -0.00568215, -0.00132466, -0.01355447, 0.00000000, 0.00000000, 0.00000000, -0.69614188, 0.71776237, -0.00358445, -0.01381348
424168849.430930, -0.02311707, -0.01559448, 0.99298096, 0.02123072, -0.00380912, -0.03126711, -153.48046875, 140.13432312, 191.54527283, -0.02479113, -0.01417992, 0.99959207, -0.00394117, -0.00226905, -0.01109721, 0.00000000, 0.00000000, 0.00000000, -0.69615776, 0.71774676, -0.00354119, -0.01383543
424168849.445798, -0.01657104, -0.01473999, 0.98446655, 0.02948918, 0.00211109, -0.01013226, -153.82267761, 141.16094971, 189.88111877, -0.02456083, -0.01405448, 0.99959952, 0.00431241, 0.00059623, -0.00736626, 0.00000000, 0.00000000, 0.00000000, -0.69620418, 0.71770434, -0.00350690, -0.01370885
424168849.463514, -0.02070618, -0.01396179, 0.99847412, 0.02478231, -0.00146527, -0.02653520, -153.30935669, 140.98985291, 189.38186646, -0.02450875, -0.01377116, 0.99960476, 0.00793770, -0.00096883, -0.01513821, 0.00000000, 0.00000000, 0.00000000, -0.69613746, 0.71777087, -0.00358917, -0.01359183
424168849.477559, -0.02847290, -0.01670837, 0.99224854, 0.00248287, 0.00215743, -0.02670751, -153.30935669, 141.67427063, 189.38186646, -0.02425891, -0.01349305, 0.99961466, 0.00355273, -0.00046874, -0.00114053, 0.00000000, 0.00000000, 0.00000000, -0.69611407, 0.71779700, -0.00360154, -0.01340542
424168849.493274, -0.02847290, -0.01670837, 0.99224854, 0.00005832, -0.00250630, -0.02797438, -153.99377441, 140.30543518, 191.04602051, -0.02428219, -0.01353356, 0.99961352, -0.00419072, -0.00317482, -0.00736500, 0.00000000, 0.00000000, 0.00000000, -0.69612563, 0.71778540, -0.00359533, -0.01342782
424168849.510054, -0.02983093, -0.01249695, 0.98605347, 0.01419678, -0.00141520, -0.02780873, -152.28274536, 139.62101746, 189.04902649, -0.02434473, -0.01367006, 0.99961019, -0.00495215, -0.00007811, -0.00931475, 0.00000000, 0.00000000, 0.00000000, -0.69611631, 0.71779326, -0.00356794, -0.01349785
424168849.524816, -0.02218628, -0.01440430, 0.98973083, 0.02242994, -0.00265570, -0.03239895, -152.28274536, 139.62101746, 189.04902649, -0.02438548, -0.01367694, 0.99960905, -0.00002858, 0.00031024, -0.01283844, 0.00000000, 0.00000000, 0.00000000, -0.69613383, 0.71777588, -0.00357999, -0.01351479
424168849.540620, -0.01673889, -0.01548767, 0.99620056, 0.02362304, 0.00091107, -0.02068850, -152.79605103, 139.44990540, 189.54827881, -0.02431452, -0.01347862, 0.99961346, 0.00212824, -0.00092568, -0.00988266, 0.00000000, 0.00000000, 0.00000000, -0.69613527, 0.71777603, -0.00362648, -0.01342025
424168849.556820, -0.02259827, -0.01586914, 0.99572754, 0.01291340, -0.00722409, -0.02442758, -153.99377441, 140.30543518, 188.38336182, -0.02411336, -0.01331226, 0.99962062, 0.00737447, -0.00217541, -0.00342003, 0.00000000, 0.00000000, 0.00000000, -0.69607601, 0.71783597, -0.00361504, -0.01329041
424168849.573140, -0.02737427, -0.01184082, 0.99453735, -0.00578305, -0.00014701, -0.02916002, -153.99377441, 138.25218201, 191.04602051, -0.02399311, -0.01326967, 0.99962407, 0.00139485, -0.00259947, -0.00389651, 0.00000000, 0.00000000, 0.00000000, -0.69604238, 0.71786979, -0.00358784, -0.01323258
424168849.588078, -0.02737427, -0.01184082, 0.99453735, -0.01293231, -0.00715565, -0.03633510, -153.65156555, 138.25218201, 190.71319580, -0.02407425, -0.01337038, 0.99962074, -0.00551254, 0.00134645, -0.00906595, 0.00000000, 0.00000000, 0.00000000, -0.69607473, 0.71783727, -0.00358054, -0.01329661
424168849.604026, -0.02409363, -0.01557922, 0.99375916, -0.02241876, -0.00937486, -0.02599618, -153.65156555, 138.59439087, 191.37886047, -0.02414172, -0.01366907, 0.99961507, -0.00567396, 0.00138575, -0.00455894, 0.00000000, 0.00000000, 0.00000000, -0.69612413, 0.71778739, -0.00349775, -0.01342458
424168849.619670, -0.01696777, -0.01838684, 0.98243713, 0.00245464, 0.00220749, -0.01856010, -153.65156555, 138.59439087, 191.37886047, -0.02398780, -0.01415948, 0.99961197, -0.00010583, -0.00141974, -0.00585282, 0.00000000, 0.00000000, 0.00000000, -0.69615725, 0.71775418, -0.00326876, -0.01353991
424168849.635098, -0.02134705, -0.01545715, 1.01019287, 0.00578039, -0.01426096, -0.03625867, -154.16488647, 138.42327881, 191.87811279, -0.02375256, -0.01453138, 0.99961227, 0.00678479, -0.00385546, -0.01717512, 0.00000000, 0.00000000, 0.00000000, -0.69615645, 0.71775505, -0.00305336, -0.01358495
424168849.651783, -0.02134705, -0.01545715, 1.01019287, 0.01059832, 0.00713195, 0.03049000, -154.50709534, 140.13432312, 191.21244812, -0.02354755, -0.01460367, 0.99961603, 0.00220050, -0.00085348, 0.01057682, 0.00000000, 0.00000000, 0.00000000, -0.69613649, 0.71777574, -0.00295564, -0.01353660
424168849.666877, 0.04177856, -0.00280762, 0.98521423, 0.00428236, 0.00793462, 0.15613661, -155.36260986, 138.93659973, 193.37585449, -0.02321410, -0.01468998, 0.99962258, 0.01593566, 0.00023991, -0.01445413, 0.00000000, 0.00000000, 0.00000000, -0.69598255, 0.71792728, -0.00280567, -0.01344754
424168849.683106, -0.03981018, -0.01400757, 0.98509216, 0.00904969, 0.00299765, 0.11653221, -154.67819214, 137.22555542, 193.37585449, -0.02205076, -0.01449762, 0.99965173, 0.01132383, 0.00012384, -0.01446802, 0.00000000, 0.00000000, 0.00000000, -0.69510714, 0.71878503, -0.00245391, -0.01296584
424168849.699019, -0.05747986, -0.02047729, 0.99215698, 0.01180420, 0.00587227, 0.01651506, -153.82267761, 139.79211426, 192.54377747, -0.02298704, -0.01456979, 0.99962962, -0.03595766, -0.00563284, -0.00423774, 0.00000000, 0.00000000, 0.00000000, -0.69420439, 0.71964926, -0.00273679, -0.01333098
424168849.714497, -0.02062988, -0.01760864, 0.98995972, 0.02239266, -0.00138831, -0.01608390, -153.82267761, 139.79211426, 192.54377747, -0.02368323, -0.01467235, 0.99961185, -0.03379663, -0.00580494, -0.00745486, 0.00000000, 0.00000000, 0.00000000, -0.69375664, 0.72007475, -0.00293317, -0.01361901
424168849.730805, -0.02482605, -0.01580811, 0.99000549, 0.00596015, -0.00137073, -0.02789395, -153.13825989, 139.79211426, 191.21244812, -0.02385673, -0.01462636, 0.99960840, 0.00322685, -0.00298228, -0.00964867, 0.00000000, 0.00000000, 0.00000000, -0.69371040, 0.72011809, -0.00300907, -0.01366574
424168849.746206, -0.02482605, -0.01580811, 0.99000549, 0.02237668, -0.00135981, -0.01142816, -153.99377441, 139.62101746, 190.71319580, -0.02376819, -0.01469552, 0.99960947, 0.00319934, -0.00414909, -0.00392772, 0.00000000, 0.00000000, 0.00000000, -0.69371584, 0.72011324, -0.00295354, -0.01365782
424168849.761962, 0.00579834, -0.01036072, 0.98861694, 0.00211854, 0.00640863, 0.09556674, -153.65156555, 139.62101746, 190.71319580, -0.02371833, -0.01462233, 0.99961174, 0.00250862, 0.00021803, -0.01213920, 0.00000000, 0.00000000, 0.00000000, -0.69369028, 0.72013864, -0.00296211, -0.01361457
424168849.778167, 0.00007629, -0.01414490, 0.99285889, 0.00052917, -0.00125595, 0.17689408, -152.96716309, 140.64764404, 191.71170044, -0.02281743, -0.01450749, 0.99963439, 0.02631169, 0.00030156, -0.00978148, 0.00000000, 0.00000000, 0.00000000, -0.69322626, 0.72059319, -0.00268231, -0.01325195
424168849.793502, -0.02099609, -0.01199341, 0.99650574, -0.00429408, -0.00462511, 0.19424538, -153.82267761, 139.10769653, 190.87960815, -0.02245741, -0.01457323, 0.99964160, 0.02253371, 0.00042833, -0.00678269, 0.00000000, 0.00000000, 0.00000000, -0.69219218, 0.72158907, -0.00251493, -0.01314861
424168849.810358, -0.06388855, -0.01910400, 0.98944092, -0.00996182, -0.00377636, 0.13717064, -152.62495422, 138.93659973, 189.38186646, -0.02216438, -0.01469212, 0.99964637, 0.00116828, 0.00269871, -0.00314064, 0.00000000, 0.00000000, 0.00000000, -0.69096334, 0.72276750, -0.00234831, -0.01308802
424168849.825002, -0.06388855, -0.01910400, 0.98944092, -0.00578279, 0.00345465, -0.01280554, -152.62495422, 138.93659973, 189.38186646, -0.02223464, -0.01494440, 0.99964106, -0.00759629, 0.00340875, -0.00458493, 0.00000000, 0.00000000, 0.00000000, -0.68988052, 0.72379929, -0.00226166, -0.01320400
424168849.841118, -0.02673340, -0.01792908, 0.98799133, 0.00017311, 0.00689626, -0.01734144, -153.30935669, 139.27880859, 191.71170044, -0.02292509, -0.01527659, 0.99962044, -0.06856661, -0.00492604, -0.01252940, 0.00000000, 0.00000000, 0.00000000, -0.68948283, 0.72417102, -0.00237225, -0.01356989
424168849.856731, -0.01954651, -0.02105713, 0.99291992, 0.00722196, 0.00567626, -0.01961605, -154.33598328, 139.62101746, 190.71319580, -0.02298582, -0.01546125, 0.99961621, -0.00460207, -0.00616046, -0.00416335, 0.00000000, 0.00000000, 0.00000000, -0.68945767, 0.72419351, -0.00232585, -0.01365565
424168849.872495, -0.01927185, -0.01441956, 0.97947693, -0.01063773, -0.00826406, -0.02469070, -153.13825989, 139.79211426, 189.88111877, -0.02299288, -0.01562247, 0.99961358, 0.00344637, -0.00543466, -0.00669364, 0.00000000, 0.00000000, 0.00000000, -0.68944671, 0.72420302, -0.00226970, -0.01371384
424168849.888469, -0.02345276, -0.01290894, 0.99424744, 0.00711969, -0.00014567, -0.01738645, -153.82267761, 138.76548767, 190.21394348, -0.02281639, -0.01591113, 0.99961305, 0.00354454, 0.00149157, -0.02013612, 0.00000000, 0.00000000, 0.00000000, -0.68942320, 0.72422522, -0.00210386, -0.01374951
424168849.904071, -0.02345276, -0.01290894, 0.99424744, 0.00597107, -0.00018908, -0.02554637, -153.82267761, 138.76548767, 190.21394348, -0.02278799, -0.01595920, 0.99961293, 0.00130362, 0.00300449, -0.00663197, 0.00000000, 0.00000000, 0.00000000, -0.68940108, 0.72424624, -0.00207624, -0.01375587
424168849.919989, -0.02822876, -0.01622009, 0.99574280, 0.01427934, 0.00804408, -0.00786405, -153.99377441, 138.93659973, 191.71170044, -0.02285522, -0.01587223, 0.99961281, -0.00235230, 0.00352787, -0.01383397, 0.00000000, 0.00000000, 0.00000000, -0.68935626, 0.72428885, -0.00213007, -0.01375036
424168849.935969, -0.02282715, -0.01708984, 0.99246216, 0.01890445, 0.00095794, -0.01724530, -154.50709534, 139.44990540, 192.21093750, -0.02297480, -0.01590605, 0.99960953, 0.00059016, -0.00040560, -0.01137403, 0.00000000, 0.00000000, 0.00000000, -0.68931349, 0.72432843, -0.00215824, -0.01380547
424168849.951709, -0.01771545, -0.01669312, 0.99018860, 0.00946647, -0.00615137, -0.04306784, -153.99377441, 138.25218201, 192.71018982, -0.02298053, -0.01575385, 0.99961179, 0.00015339, -0.00133599, -0.00714962, 0.00000000, 0.00000000, 0.00000000, -0.68925878, 0.72438127, -0.00221430, -0.01375525
424168849.966971, -0.02215576, -0.01536560, 0.98999023, 0.01415949, -0.00014807, -0.01149367, -152.96716309, 137.56776428, 193.04302979, -0.02273014, -0.01579281, 0.99961686, 0.00501468, -0.00090030, -0.00942829, 0.00000000, 0.00000000, 0.00000000, -0.68928552, 0.72435759, -0.00211436, -0.01367787
424168849.984012, -0.02215576, -0.01536560, 0.98999023, 0.01654862, -0.00022504, -0.02194498, -153.65156555, 138.59439087, 192.04452515, -0.02268340, -0.01570621, 0.99961931, 0.00052764, 0.00034061, -0.00962908, 0.00000000, 0.00000000, 0.00000000, -0.68926638, 0.72437664, -0.00212925, -0.01363114
424168849.998782, -0.02586365, -0.01380920, 0.99102783, 0.01294935, -0.00728827, -0.03490339, -152.79605103, 139.44990540, 195.87210083, -0.02269070, -0.01557872, 0.99962115, -0.00262363, 0.00048778, -0.00137591, 0.00000000, 0.00000000, 0.00000000, -0.68922699, 0.72441475, -0.00217720, -0.01358995
424168850.014432, -0.02264404, -0.01533508, 0.98825073, 0.00706643, -0.00725658, -0.03496411, -152.79605103, 139.44990540, 195.87210083, -0.02265226, -0.01541512, 0.99962455, -0.00073947, 0.00029366, -0.00565178, 0.00000000, 0.00000000, 0.00000000, -0.68926343, 0.72438126, -0.00222389, -0.01351951
424168850.030630, -0.02033997, -0.01954651, 0.98669434, 0.01178262, -0.00489729, -0.02672802, -154.16488647, 138.76548767, 192.54377747, -0.02257125, -0.01539000, 0.99962676, -0.00007279, 0.00005492, -0.01137604, 0.00000000, 0.00000000, 0.00000000, -0.68929765, 0.72434946, -0.00220570, -0.01348140
424168850.046272, -0.02091980, -0.01466370, 0.99621582, -0.00110867, -0.00011531, -0.01979954, -153.82267761, 139.44990540, 192.54377747, -0.02246267, -0.01551119, 0.99962735, 0.00212271, -0.00403532, -0.01293301, 0.00000000, 0.00000000, 0.00000000, -0.68931654, 0.72433168, -0.00212472, -0.01348379
424168850.063380, -0.02276611, -0.01213074, 0.97903442, 0.00593592, -0.00132785, -0.02091034, -151.94053650, 139.96322632, 190.71319580, -0.02236806, -0.01565915, 0.99962717, 0.00144826, 0.00099546, -0.00341134, 0.00000000, 0.00000000, 0.00000000, -0.68929489, 0.72435222, -0.00203810, -0.01350058
424168850.077759, -0.02276611, -0.01213074, 0.97903442, 0.01642877, -0.00841719, -0.02557487, -152.28274536, 140.30543518, 189.38186646, -0.02230701, -0.01590937, 0.99962455, -0.00058118, 0.00033014, -0.01264032, 0.00000000, 0.00000000, 0.00000000, -0.68929040, 0.72435560, -0.00192635, -0.01356474
424168850.093471, -0.02554321, -0.01652527, 0.98999023, 0.02596156, -0.00027590, -0.02184751, -153.30935669, 140.30543518, 191.37886047, -0.02223082, -0.01580353, 0.99962795, -0.00404482, -0.00021820, -0.00737942, 0.00000000, 0.00000000, 0.00000000, -0.68929797, 0.72434956, -0.00193855, -0.01350062
424168850.110275, -0.02006531, -0.02075195, 0.98417664, 0.02002165, -0.00374574, -0.02196735, -154.67819214, 138.93659973, 190.04753113, -0.02221546, -0.01554757, 0.99963230, -0.00332776, -0.00097770, -0.00964207, 0.00000000, 0.00000000, 0.00000000, -0.68926144, 0.72438582, -0.00202528, -0.01340692
424168850.125199, -0.00857544, -0.02816772, 0.99304199, 0.01046463, -0.01184441, -0.01871110, -154.67819214, 138.93659973, 190.04753113, -0.02212638, -0.01556123, 0.99963409, 0.00206107, -0.00519073, -0.01545743, 0.00000000, 0.00000000, 0.00000000, -0.68922956, 0.72441677, -0.00198903, -0.01337944
424168850.141473, -0.00857544, -0.02816772, 0.99304199, -0.00729600, -0.00434575, 0.04640585, -153.82267761, 141.16094971, 190.21394348, -0.02168958, -0.01578800, 0.99964011, 0.01311414, -0.01237973, -0.00659809, 0.00000000, 0.00000000, 0.00000000, -0.68922030, 0.72442765, -0.00175614, -0.01329936
424168850.157035, -0.00608826, -0.02183533, 0.98858643, -0.00974823, -0.00535748, 0.06964140, -155.36260986, 136.88334656, 188.71620178, -0.02116751, -0.01626443, 0.99964362, 0.02571463, -0.01875450, -0.00948556, 0.00000000, 0.00000000, 0.00000000, -0.68895084, 0.72468515, -0.00139864, -0.01327495
424168850.173597, -0.03413391, -0.00656128, 0.99362183, 0.00450527, -0.00327036, 0.04189152, -154.84930420, 138.42327881, 191.21244812, -0.02089904, -0.01655193, 0.99964458, -0.00192811, 0.00732036, -0.01035624, 0.00000000, 0.00000000, 0.00000000, -0.68841654, 0.72519304, -0.00119216, -0.01327759
424168850.188405, -0.04249573, -0.00512695, 0.99018860, 0.00948405, 0.00462511, 0.00133957, -153.82267761, 137.73886108, 192.21093750, -0.02112609, -0.01649996, 0.99964064, -0.01300782, 0.00993868, -0.00601883, 0.00000000, 0.00000000, 0.00000000, -0.68794573, 0.72563834, -0.00128053, -0.01334289
424168850.204367, -0.00819397, -0.01519775, 0.99365234, 0.02339054, -0.01068274, -0.00808163, -154.33598328, 137.56776428, 192.71018982, -0.02192281, -0.01608270, 0.99963027, -0.02057292, 0.01095574, -0.00944170, 0.00000000, 0.00000000, 0.00000000, -0.68768231, 0.72588442, -0.00170119, -0.01348910
424168850.220210, -0.00819397, -0.01519775, 0.99365234, 0.00935196, 0.00486080, 0.03975008, -154.33598328, 137.56776428, 192.71018982, -0.02160849, -0.01594237, 0.99963939, 0.01341452, 0.00074462, -0.00598705, 0.00000000, 0.00000000, 0.00000000, -0.68756033, 0.72600309, -0.00164176, -0.01332699
424168850.235745, -0.01092529, -0.02415466, 0.98483276, 0.00225410, 0.01097063, 0.07818615, -154.84930420, 137.05444336, 190.87960815, -0.02153087, -0.01592308, 0.99964136, 0.00720286, -0.00057168, -0.01445766, 0.00000000, 0.00000000, 0.00000000, -0.68726301, 0.72628524, -0.00161663, -0.01329283
424168850.251611, -0.02299500, -0.01927185, 0.99545288, -0.00610929, 0.00163412, 0.07095966, -153.30935669, 139.27880859, 193.70869446, -0.02141175, -0.01617778, 0.99963987, 0.00458130, -0.00638997, -0.01299128, 0.00000000, 0.00000000, 0.00000000, -0.68674776, 0.72677192, -0.00147372, -0.01333816
424168850.267039, -0.05108643, -0.01203918, 0.99118042, 0.00463230, -0.00229618, 0.01048433, -154.33598328, 138.25218201, 193.04302979, -0.02153945, -0.01631347, 0.99963492, -0.00145554, -0.00295838, -0.00418201, 0.00000000, 0.00000000, 0.00000000, -0.68617670, 0.72730941, -0.00145773, -0.01343234
424168850.283553, -0.02429199, -0.01777649, 0.99047852, 0.00716124, 0.00218193, -0.01851137, -153.30935669, 138.93659973, 193.70869446, -0.02226242, -0.01627023, 0.99961978, -0.02882401, 0.00423105, -0.00843934, 0.00000000, 0.00000000, 0.00000000, -0.68584201, 0.72761983, -0.00171531, -0.01368129
424168850.299614, -0.02058411, -0.01860046, 0.99369812, 0.00474575, -0.00369886, -0.02794561, -153.65156555, 139.62101746, 192.37736511, -0.02251363, -0.01626088, 0.99961430, -0.00177837, -0.00151561, -0.00913577, 0.00000000, 0.00000000, 0.00000000, -0.68575363, 0.72770125, -0.00180322, -0.01376973
424168850.315199, -0.02058411, -0.01860046, 0.99369812, -0.00338035, 0.00215343, -0.03258830, -153.65156555, 139.62101746, 192.37736511, -0.02251288, -0.01639790, 0.99961209, 0.00025031, -0.00383526, -0.01267359, 0.00000000, 0.00000000, 0.00000000, -0.68573612, 0.72771698, -0.00175277, -0.01381650
424168850.331053, -0.02632141, -0.01455688, 0.99275208, -0.00119922, -0.00595882, -0.02106214, -153.48046875, 138.76548767, 191.21244812, -0.02248898, -0.01663868, 0.99960864, -0.00281009, 0.00011341, -0.00913011, 0.00000000, 0.00000000, 0.00000000, -0.68575400, 0.72769895, -0.00165730, -0.01389034
424168850.346344, -0.02549744, -0.01725769, 0.99572754, -0.00701370, -0.00244691, -0.02455568, -153.48046875, 140.13432312, 191.21244812, -0.02251404, -0.01673483, 0.99960643, -0.00040466, 0.00283407, -0.00661024, 0.00000000, 0.00000000, 0.00000000, -0.68574693, 0.72770486, -0.00163078, -0.01393246
424168850.363371, -0.01811218, -0.02008057, 0.98765564, 0.00824728, -0.00366797, -0.01976145, -152.45384216, 140.81874084, 190.87960815, -0.02248910, -0.01692659, 0.99960381, -0.00300833, -0.00033110, -0.00387625, 0.00000000, 0.00000000, 0.00000000, -0.68576482, 0.72768709, -0.00155279, -0.01398912
424168850.378736, -0.01704407, -0.02258301, 0.99090576, -0.00221575, 0.00216835, -0.02908438, -153.30935669, 139.96322632, 189.38186646, -0.02231511, -0.01707037, 0.99960524, 0.00420293, -0.00301019, -0.01194960, 0.00000000, 0.00000000, 0.00000000, -0.68573956, 0.72771140, -0.00144031, -0.01397515
424168850.393750, -0.01704407, -0.02258301, 0.99090576, 0.00954530, 0.00331484, -0.02195909, -153.30935669, 140.98985291, 188.71620178, -0.02222664, -0.01729780, 0.99960333, 0.00359566, -0.00205035, -0.01141360, 0.00000000, 0.00000000, 0.00000000, -0.68573560, 0.72771446, -0.00132713, -0.01402096
424168850.409429, -0.02452087, -0.01751709, 0.99099731, 0.01182950, -0.00377982, -0.03485625, -153.99377441, 139.62101746, 191.37886047, -0.02216760, -0.01747618, 0.99960148, -0.00104102, -0.00400820, -0.00491157, 0.00000000, 0.00000000, 0.00000000, -0.68573211, 0.72771713, -0.00124191, -0.01406066
424168850.425508, -0.02685547, -0.01333618, 0.99401855, 0.01651479, -0.00256702, -0.02314846, -153.99377441, 139.62101746, 191.37886047, -0.02220786, -0.01742570, 0.99960148, -0.00481546, 0.00216691, -0.00857367, 0.00000000, 0.00000000, 0.00000000, -0.68578805, 0.72766442, -0.00127516, -0.01405790
424168850.441577, -0.02140808, -0.01635742, 0.98995972, 0.01645807, -0.00606855, -0.02320758, -153.13825989, 137.39665222, 190.87960815, -0.02223433, -0.01730076, 0.99960309, -0.00462113, 0.00396458, -0.00558453, 0.00000000, 0.00000000, 0.00000000, -0.68580180, 0.72765199, -0.00132997, -0.01402466
424168850.457236, -0.02244568, -0.02246094, 0.98942566, 0.01887622, -0.00259365, -0.02545183, -155.19151306, 138.42327881, 191.21244812, -0.02213480, -0.01707727, 0.99960911, 0.00072671, 0.00071985, -0.00964942, 0.00000000, 0.00000000, 0.00000000, -0.68581894, 0.72763792, -0.00137746, -0.01391174
424168850.472897, -0.02244568, -0.02246094, 0.98942566, 0.01190140, 0.00449808, -0.01725915, -153.30935669, 138.59439087, 193.70869446, -0.02206360, -0.01696274, 0.99961263, 0.00250184, -0.00362137, -0.00544151, 0.00000000, 0.00000000, 0.00000000, -0.68577590, 0.72767970, -0.00139389, -0.01384662
424168850.488911, -0.02133179, -0.01856995, 0.98994446, 0.02009062, -0.00026525, -0.02540017, -155.53372192, 139.10769653, 190.87960815, -0.02203303, -0.01696496, 0.99961329, 0.00221187, -0.00287147, -0.00992823, 0.00000000, 0.00000000, 0.00000000, -0.68574818, 0.72770604, -0.00138207, -0.01383630
424168850.504779, -0.02236938, -0.01585388, 0.99223328, 0.01655900, -0.00264558, -0.03595214, -155.36260986, 139.27880859, 194.04151917, -0.02197484, -0.01686984, 0.99961621, 0.00189427, -0.00221891, -0.00369028, 0.00000000, 0.00000000, 0.00000000, -0.68572507, 0.72772881, -0.00139628, -0.01378254
424168850.520633, -0.02851868, -0.01522827, 0.98901367, 0.01315229, 0.01036343, -0.01132882, -154.33598328, 137.90997314, 193.70869446, -0.02193000, -0.01675992, 0.99961901, -0.00043939, 0.00090604, -0.00738574, 0.00000000, 0.00000000, 0.00000000, -0.68575956, 0.72769728, -0.00142155, -0.01372845
424168850.536375, -0.02137756, -0.01731873, 0.98745728, 0.01423486, 0.00452098, -0.01141511, -154.33598328, 137.90997314, 193.70869446, -0.02216122, -0.01660283, 0.99961656, -0.00635746, 0.00137456, -0.01060287, 0.00000000, 0.00000000, 0.00000000, -0.68572303, 0.72773085, -0.00155733, -0.01375881
424168850.551941, -0.02137756, -0.01731873, 0.98745728, 0.03896817, 0.00434495, -0.01814332, -154.67819214, 138.93659973, 193.04302979, -0.02220771, -0.01646119, 0.99961787, -0.00017693, 0.00062257, -0.01213006, 0.00000000, 0.00000000, 0.00000000, -0.68565443, 0.72779594, -0.00162352, -0.01372731
424168850.567146, -0.01956177, -0.02130127, 0.98918152, 0.02714640, -0.00029668, -0.02416313, -153.82267761, 138.42327881, 192.54377747, -0.02212866, -0.01631433, 0.99962199, 0.00600012, -0.00599402, -0.02223554, 0.00000000, 0.00000000, 0.00000000, -0.68562515, 0.72782495, -0.00164931, -0.01364823
424168850.583705, -0.02470398, -0.01950073, 0.99696350, 0.02124590, 0.00096673, -0.01372913, -152.45384216, 140.47653198, 192.54377747, -0.02211655, -0.01604147, 0.99962670, 0.00205124, -0.00330667, -0.00170189, 0.00000000, 0.00000000, 0.00000000, -0.68558471, 0.72786465, -0.00174370, -0.01355035
424168850.599409, -0.02902222, -0.01353455, 0.99678040, 0.00824568, -0.00606695, -0.03027641, -152.96716309, 139.62101746, 191.04602051, -0.02223264, -0.01579432, 0.99962807, -0.00247134, -0.00370641, -0.00266455, 0.00000000, 0.00000000, 0.00000000, -0.68553628, 0.72791073, -0.00187256, -0.01350799
424168850.615108, -0.02285767, -0.01681519, 0.98797607, 0.00845740, 0.00676603, -0.03122397, -154.33598328, 138.93659973, 191.37886047, -0.02228573, -0.01555208, 0.99963069, -0.00673649, 0.00201754, -0.00285028, 0.00000000, 0.00000000, 0.00000000, -0.68555022, 0.72789850, -0.00197919, -0.01344422
424168850.631399, -0.02285767, -0.01681519, 0.98797607, 0.03316994, 0.01143002, -0.00993812, -154.33598328, 138.93659973, 191.37886047, -0.02230447, -0.01551711, 0.99963081, -0.00285727, 0.00244032, -0.01211249, 0.00000000, 0.00000000, 0.00000000, -0.68557282, 0.72787726, -0.00199876, -0.01343899
424168850.646614, -0.02081299, -0.01907349, 0.99343872, 0.02959038, 0.00913624, -0.00652235, -153.48046875, 138.08106995, 190.54678345, -0.02249016, -0.01538907, 0.99962860, 0.00045647, -0.00461521, -0.01218660, 0.00000000, 0.00000000, 0.00000000, -0.68549470, 0.72795008, -0.00210760, -0.01346292
424168850.662992, -0.02015686, -0.01664734, 0.99295044, 0.01888021, -0.00260084, -0.02661563, -153.82267761, 140.47653198, 192.21093750, -0.02255248, -0.01510182, 0.99963158, 0.00215148, -0.00177440, -0.00817651, 0.00000000, 0.00000000, 0.00000000, -0.68537991, 0.72805919, -0.00223141, -0.01338748
424168850.679164, -0.02661133, -0.01353455, 0.98678589, 0.00822144, -0.00602407, -0.02329281, -154.84930420, 139.10769653, 190.54678345, -0.02246382, -0.01491483, 0.99963641, 0.00230696, -0.00173251, -0.00668596, 0.00000000, 0.00000000, 0.00000000, -0.68537049, 0.72806970, -0.00226892, -0.01329112
424168850.693793, -0.02244568, -0.01387024, 0.98649597, 0.00471193, -0.00604058, -0.02914910, -154.33598328, 138.59439087, 189.04902649, -0.02251684, -0.01494286, 0.99963480, -0.00409449, 0.00140832, -0.01284890, 0.00000000, 0.00000000, 0.00000000, -0.68534593, 0.72809227, -0.00227644, -0.01332012
424168850.710012, -0.02244568, -0.01387024, 0.98649597, 0.01421888, 0.00454974, -0.00675937, -153.65156555, 138.25218201, 191.04602051, -0.02241049, -0.01492036, 0.99963748, -0.00003519, 0.00105012, -0.01314154, 0.00000000, 0.00000000, 0.00000000, -0.68533371, 0.72810471, -0.00224795, -0.01327371
424168850.725656, -0.02503967, -0.01702881, 0.99322510, 0.00820680, -0.00719879, -0.02447631, -154.16488647, 137.39665222, 190.54678345, -0.02249111, -0.01489613, 0.99963605, -0.00274693, -0.00307872, -0.00865401, 0.00000000, 0.00000000, 0.00000000, -0.68528482, 0.72815022, -0.00228351, -0.01329492
424168850.741632, -0.02232361, -0.01780701, 0.99197388, 0.00717615, 0.00335585, -0.01732759, -154.16488647, 137.39665222, 190.54678345, -0.02231571, -0.01494682, 0.99963921, 0.00389836, -0.00174630, -0.00345393, 0.00000000, 0.00000000, 0.00000000, -0.68527552, 0.72816006, -0.00220477, -0.01324844
424168850.757212, -0.02290344, -0.01510620, 0.98773193, 0.00831545, -0.00378941, -0.03954874, -155.19151306, 138.42327881, 191.87811279, -0.02228050, -0.01499061, 0.99963939, -0.00004310, -0.00281640, -0.00766549, 0.00000000, 0.00000000, 0.00000000, -0.68526740, 0.72816775, -0.00217661, -0.01325065
424168850.772909, -0.02513123, -0.01408386, 0.99250793, 0.01424285, 0.00450687, -0.01374298, -154.33598328, 137.56776428, 193.04302979, -0.02224971, -0.01498414, 0.99964017, -0.00065373, -0.00012206, -0.01190821, 0.00000000, 0.00000000, 0.00000000, -0.68531745, 0.72812092, -0.00216932, -0.01323707
424168850.788816, -0.02513123, -0.01408386, 0.99250793, 0.01058420, -0.00725392, -0.03143569, -156.04702759, 138.93659973, 194.04151917, -0.02237219, -0.01493659, 0.99963814, -0.00275903, 0.00085273, -0.00713019, 0.00000000, 0.00000000, 0.00000000, -0.68529940, 0.72813721, -0.00222828, -0.01326543
424168850.804600, -0.02163696, -0.01538086, 0.99298096, 0.01068567, -0.00022877, -0.02782551, -154.16488647, 137.39665222, 192.87660217, -0.02235780, -0.01494815, 0.99963826, -0.00318541, -0.00084469, -0.00813742, 0.00000000, 0.00000000, 0.00000000, -0.68529111, 0.72814506, -0.00221899, -0.01326418
424168850.820655, -0.01750183, -0.01570129, 0.98844910, 0.01180260, -0.00493297, -0.03254782, -154.33598328, 137.56776428, 193.37585449, -0.02229620, -0.01497137, 0.99963933, 0.00088812, -0.00091303, -0.00942019, 0.00000000, 0.00000000, 0.00000000, -0.68532329, 0.72811513, -0.00219001, -0.01324961
424168850.836721, -0.02339172, -0.01486206, 0.99247742, 0.02009595, 0.00212627, -0.01604927, -154.33598328, 137.56776428, 193.37585449, -0.02215649, -0.01492750, 0.99964309, 0.00465466, -0.00077379, -0.01119397, 0.00000000, 0.00000000, 0.00000000, -0.68534275, 0.72809810, -0.00215844, -0.01318363
424168850.852004, -0.02217102, -0.01440430, 0.99198914, 0.00717322, 0.00216036, -0.02200304, -154.50709534, 140.47653198, 192.87660217, -0.02218283, -0.01487204, 0.99964333, -0.00120890, 0.00000998, -0.00716589, 0.00000000, 0.00000000, 0.00000000, -0.68532553, 0.72811440, -0.00218734, -0.01317426
424168850.867367, -0.02217102, -0.01440430, 0.99198914, 0.01179754, -0.00372257, -0.02554451, -153.65156555, 139.27880859, 192.37736511, -0.02216271, -0.01487698, 0.99964368, -0.00000830, 0.00047268, -0.00765455, 0.00000000, 0.00000000, 0.00000000, -0.68533965, 0.72810124, -0.00217891, -0.01316859
424168850.884884, -0.02516174, -0.01309204, 0.98976135, 0.01539307, -0.00145728, -0.03361655, -153.30935669, 139.62101746, 189.71469116, -0.02206793, -0.01480969, 0.99964678, -0.00223932, -0.00223437, -0.00991594, 0.00000000, 0.00000000, 0.00000000, -0.68538803, 0.72805676, -0.00217178, -0.01311086
424168850.899520, -0.02186584, -0.01731873, 0.99021912, 0.02007704, 0.00095874, -0.01606898, -154.84930420, 141.16094971, 191.54527283, -0.02206349, -0.01469246, 0.99964863, -0.00010753, -0.00018486, -0.01116899, 0.00000000, 0.00000000, 0.00000000, -0.68539550, 0.72805035, -0.00221307, -0.01306903
424168850.915177, -0.02357483, -0.01681519, 0.99098206, 0.00835647, 0.00334253, -0.01847967, -154.67819214, 139.62101746, 190.71319580, -0.02200008, -0.01460427, 0.99965131, 0.00013424, -0.00271445, -0.00943218, 0.00000000, 0.00000000, 0.00000000, -0.68539686, 0.72804999, -0.00222346, -0.01301571
424168850.932638, -0.02314758, -0.01461792, 0.99447632, 0.01065185, -0.00257075, -0.02902899, -152.79605103, 138.76548767, 190.54678345, -0.02210046, -0.01470776, 0.99964756, -0.00147437, -0.00210743, -0.00866551, 0.00000000, 0.00000000, 0.00000000, -0.68534096, 0.72810133, -0.00221920, -0.01308791
424168850.946892, -0.02314758, -0.01461792, 0.99447632, 0.01772121, -0.00022424, -0.02076893, -152.79605103, 138.76548767, 190.54678345, -0.02206486, -0.01473572, 0.99964792, -0.00108272, 0.00011780, -0.00517162, 0.00000000, 0.00000000, 0.00000000, -0.68537518, 0.72806925, -0.00219743, -0.01308443
424168850.963110, -0.02386475, -0.01483154, 0.99122620, 0.01191631, 0.00567227, -0.01607537, -153.82267761, 137.39665222, 190.87960815, -0.02208463, -0.01467100, 0.99964845, -0.00370272, -0.00232729, -0.00916994, 0.00000000, 0.00000000, 0.00000000, -0.68536028, 0.72808345, -0.00222750, -0.01306948
424168850.978498, -0.02407837, -0.01629639, 0.99122620, 0.01181352, -0.00375133, -0.03020025, -154.50709534, 139.10769653, 190.87960815, -0.02220081, -0.01460957, 0.99964678, -0.00337292, -0.00045085, -0.00863421, 0.00000000, 0.00000000, 0.00000000, -0.68532674, 0.72811445, -0.00228909, -0.01309084
424168850.994209, -0.02116394, -0.01588440, 0.99021912, 0.01643277, -0.00842438, -0.02673867, -153.30935669, 137.56776428, 191.71170044, -0.02217608, -0.01458742, 0.99964768, -0.00190229, -0.00170897, -0.00842146, 0.00000000, 0.00000000, 0.00000000, -0.68535215, 0.72809083, -0.00228913, -0.01307416
424168851.009873, -0.02339172, -0.01557922, 0.98948669, 0.01764690, -0.00609624, -0.02668700, -155.19151306, 139.44990540, 191.87811279, -0.02205887, -0.01458590, 0.99965024, 0.00089493, -0.00129850, -0.00943115, 0.00000000, 0.00000000, 0.00000000, -0.68537619, 0.72806910, -0.00224993, -0.01303089
424168851.026912, -0.02171326, -0.01269531, 0.99324036, 0.00360006, -0.00254678, -0.03142983, -155.70481873, 137.22555542, 190.71319580, -0.02203384, -0.01458267, 0.99965090, -0.00135788, -0.00099655, -0.01016417, 0.00000000, 0.00000000, 0.00000000, -0.68539298, 0.72805349, -0.00224283, -0.01302061
424168851.041614, -0.02171326, -0.01269531, 0.99324036, 0.01062362, -0.00252068, -0.02088131, -155.70481873, 137.22555542, 190.71319580, -0.02203268, -0.01460018, 0.99965066, -0.00451761, -0.00067387, -0.00663916, 0.00000000, 0.00000000, 0.00000000, -0.68544281, 0.72800650, -0.00223695, -0.01302604
424168851.057377, -0.02359009, -0.01631165, 0.99098206, 0.00834928, -0.00144769, -0.03834552, -154.67819214, 137.22555542, 191.37886047, -0.02205649, -0.01459638, 0.99965018, -0.00296792, -0.00292071, -0.00717275, 0.00000000, 0.00000000, 0.00000000, -0.68542783, 0.72802045, -0.00224623, -0.01303345
424168851.073134, -0.02311707, -0.01583862, 0.98847961, 0.00946035, -0.00373855, -0.03022475, -155.70481873, 138.93659973, 192.37736511, -0.02211882, -0.01464049, 0.99964815, -0.00093721, -0.00290712, -0.00743013, 0.00000000, 0.00000000, 0.00000000, -0.68543723, 0.72801090, -0.00225171, -0.01307124
424168851.089147, -0.02215576, -0.01536560, 0.98924255, 0.01187344, 0.00454815, -0.00911147, -153.30935669, 137.90997314, 192.71018982, -0.02212984, -0.01465289, 0.99964774, -0.00098723, -0.00118573, -0.01116811, 0.00000000, 0.00000000, 0.00000000, -0.68546914, 0.72798071, -0.00225155, -0.01307940
424168851.105241, -0.02412415, -0.01481628, 0.98675537, 0.01295788, -0.00370046, -0.02087679, -156.04702759, 138.59439087, 193.04302979, -0.02214849, -0.01463942, 0.99964750, -0.00000727, -0.00072618, -0.01040495, 0.00000000, 0.00000000, 0.00000000, -0.68541406, 0.72803250, -0.00226186, -0.01308175
424168851.120792, -0.02412415, -0.01481628, 0.98675537, 0.00710478, -0.00131986, -0.01857022, -154.67819214, 137.56776428, 192.04452515, -0.02213781, -0.01462525, 0.99964797, 0.00045507, 0.00046510, -0.00640759, 0.00000000, 0.00000000, 0.00000000, -0.68537019, 0.72807395, -0.00226256, -0.01307314
424168851.137489, -0.02653503, -0.01673889, 0.98849487, 0.00720305, 0.00450926, -0.01963575, -155.53372192, 138.76548767, 191.54527283, -0.02216819, -0.01462497, 0.99964726, -0.00122354, -0.00022183, -0.00864996, 0.00000000, 0.00000000, 0.00000000, -0.68534397, 0.72809840, -0.00227261, -0.01308418
424168851.152184, -0.02410889, -0.01510620, 0.99424744, 0.01073174, 0.00569304, -0.01375975, -155.53372192, 138.76548767, 191.54527283, -0.02227578, -0.01469377, 0.99964386, -0.00180259, -0.00210616, -0.00940950, 0.00000000, 0.00000000, 0.00000000, -0.68534184, 0.72809923, -0.00228441, -0.01314696
424168851.167610, -0.02064514, -0.01689148, 0.99319458, 0.00945635, -0.00373136, -0.02906095, -152.45384216, 138.42327881, 191.87811279, -0.02238212, -0.01470526, 0.99964136, -0.00172677, -0.00040094, -0.00539390, 0.00000000, 0.00000000, 0.00000000, -0.68530630, 0.72813182, -0.00231604, -0.01318973
424168851.183502, -0.02311707, -0.01608276, 0.99047852, 0.01416695, -0.00376411, -0.03017601, -154.50709534, 140.13432312, 191.21244812, -0.02232584, -0.01474329, 0.99964201, 0.00168070, -0.00214819, -0.00644745, 0.00000000, 0.00000000, 0.00000000, -0.68532785, 0.72811178, -0.00228329, -0.01318220
424168851.199949, -0.02311707, -0.01608276, 0.99047852, 0.01532143, -0.00613353, -0.03485918, -154.33598328, 138.93659973, 191.37886047, -0.02227144, -0.01469394, 0.99964398, 0.00066499, -0.00216702, -0.00518291, 0.00000000, 0.00000000, 0.00000000, -0.68533177, 0.72810875, -0.00228268, -0.01314547
424168851.215380, -0.02676392, -0.01651001, 0.99249268, 0.00829841, -0.00255823, -0.02905349, -153.99377441, 139.62101746, 188.71620178, -0.02219238, -0.01466526, 0.99964613, -0.00017701, -0.00166164, -0.00866410, 0.00000000, 0.00000000, 0.00000000, -0.68536715, 0.72807619, -0.00226665, -0.01310673
424168851.231475, -0.02508545, -0.01528931, 0.99124146, 0.00958312, 0.00564936, -0.02191968, -153.65156555, 140.64764404, 190.38035583, -0.02228341, -0.01467042, 0.99964404, -0.00234428, 0.00105958, -0.00713612, 0.00000000, 0.00000000, 0.00000000, -0.68538550, 0.72805820, -0.00229631, -0.01314159
424168851.247388, -0.02510071, -0.01507568, 0.99349976, 0.01880192, -0.00846539, -0.03137017, -153.48046875, 140.47653198, 189.88111877, -0.02229402, -0.01462267, 0.99964452, -0.00279143, -0.00066664, -0.00840306, 0.00000000, 0.00000000, 0.00000000, -0.68539782, 0.72804676, -0.00231756, -0.01312905
424168851.263554, -0.02359009, -0.01583862, 0.99172974, 0.01767380, -0.00494363, -0.02899543, -153.48046875, 140.47653198, 189.88111877, -0.02232158, -0.01455984, 0.99964482, -0.00277913, -0.00051584, -0.00614506, 0.00000000, 0.00000000, 0.00000000, -0.68538546, 0.72805850, -0.00234965, -0.01311759
424168851.278900, -0.02359009, -0.01583862, 0.99172974, 0.01420077, -0.00142239, -0.02897280, -155.19151306, 137.73886108, 191.54527283, -0.02227088, -0.01445343, 0.99964750, -0.00035790, -0.00091217, -0.00567471, 0.00000000, 0.00000000, 0.00000000, -0.68540729, 0.72803887, -0.00237140, -0.01306258
424168851.294244, -0.02429199, -0.01727295, 0.99198914, 0.00601528, 0.00333375, -0.02199558, -154.33598328, 138.25218201, 192.04452515, -0.02220505, -0.01438308, 0.99964994, -0.00019485, -0.00073838, -0.00792023, 0.00000000, 0.00000000, 0.00000000, -0.68544039, 0.72800855, -0.00237503, -0.01301439
424168851.310475, -0.02319336, -0.01290894, 0.99249268, 0.00488477, 0.00566028, -0.02429628, -154.33598328, 137.56776428, 193.04302979, -0.02228888, -0.01442542, 0.99964750, -0.00230829, -0.00066553, -0.00715482, 0.00000000, 0.00000000, 0.00000000, -0.68542094, 0.72802602, -0.00238801, -0.01305949
424168851.326180, -0.02111816, -0.01733398, 0.99169922, 0.01061270, -0.00370206, -0.02322889, -154.33598328, 138.59439087, 192.37736511, -0.02226811, -0.01442913, 0.99964792, -0.00092525, 0.00152019, -0.00715523, 0.00000000, 0.00000000, 0.00000000, -0.68543986, 0.72800835, -0.00237988, -0.01305313
424168851.341899, -0.02265930, -0.01463318, 0.99247742, 0.01412913, -0.00609864, -0.03021543, -152.11163330, 139.10769653, 192.87660217, -0.02231649, -0.01452316, 0.99964547, 0.00119832, -0.00281082, -0.00794624, 0.00000000, 0.00000000, 0.00000000, -0.68539591, 0.72804889, -0.00236145, -0.01310313
424168851.357511, -0.02265930, -0.01463318, 0.99247742, 0.01651772, -0.00137073, -0.01847302, -152.11163330, 139.10769653, 192.87660217, -0.02228073, -0.01449976, 0.99964660, -0.00037857, -0.00013342, -0.00716918, 0.00000000, 0.00000000, 0.00000000, -0.68538182, 0.72806254, -0.00235746, -0.01308213
424168851.373602, -0.02285767, -0.01585388, 0.99172974, 0.01062095, -0.00371617, -0.02555676, -154.50709534, 138.76548767, 193.20944214, -0.02224080, -0.01445090, 0.99964821, -0.00237162, 0.00009238, -0.00640784, 0.00000000, 0.00000000, 0.00000000, -0.68537664, 0.72806796, -0.00236146, -0.01305086
424168851.389823, -0.02783203, -0.01306152, 0.99252319, 0.01768339, -0.00255903, -0.02080834, -154.84930420, 139.10769653, 193.54226685, -0.02221347, -0.01443384, 0.99964905, -0.00049161, 0.00128076, -0.00939942, 0.00000000, 0.00000000, 0.00000000, -0.68539585, 0.72805018, -0.00235864, -0.01303499
424168851.405319, -0.02378845, -0.01779175, 0.99421692, 0.00832531, -0.00140482, -0.03136165, -154.16488647, 139.44990540, 192.87660217, -0.02222703, -0.01430991, 0.99965054, -0.00560500, 0.00124839, -0.00712734, 0.00000000, 0.00000000, 0.00000000, -0.68539714, 0.72804947, -0.00240843, -0.01299744
424168851.420662, -0.02314758, -0.01438904, 0.99497986, 0.00365545, 0.00215823, -0.02553146, -153.30935669, 139.96322632, 192.37736511, -0.02220785, -0.01437466, 0.99965000, -0.00158060, -0.00341709, -0.00543311, 0.00000000, 0.00000000, 0.00000000, -0.68542088, 0.72802695, -0.00237871, -0.01301258
424168851.436091, -0.02314758, -0.01438904, 0.99497986, 0.01535419, -0.00258913, -0.02781618, -152.79605103, 140.47653198, 192.54377747, -0.02220908, -0.01439542, 0.99964970, -0.00093850, 0.00000638, -0.00466984, 0.00000000, 0.00000000, 0.00000000, -0.68542423, 0.72802368, -0.00237163, -0.01302013
424168851.452528, -0.02276611, -0.01953125, 0.99319458, 0.01533235, -0.00495215, -0.03251134, -152.79605103, 140.47653198, 192.54377747, -0.02215627, -0.01435087, 0.99965149, 0.00029042, -0.00273897, -0.01042422, 0.00000000, 0.00000000, 0.00000000, -0.68543269, 0.72801634, -0.00236989, -0.01298560
424168851.467970, -0.02406311, -0.01681519, 0.99322510, 0.01072482, 0.00450447, -0.01727140, -153.65156555, 139.62101746, 191.04602051, -0.02210463, -0.01440967, 0.99965179, -0.00169908, -0.00263440, -0.00743380, 0.00000000, 0.00000000, 0.00000000, -0.68544349, 0.72800627, -0.00233098, -0.01298692
424168851.483865, -0.02728271, -0.01477051, 0.99250793, 0.01190140, 0.00449808, -0.01725915, -152.62495422, 140.30543518, 190.04753113, -0.02217628, -0.01439304, 0.99965048, -0.00188683, -0.00242214, -0.00642537, 0.00000000, 0.00000000, 0.00000000, -0.68540859, 0.72803867, -0.00236097, -0.01300743
424168851.500894, -0.02552795, -0.01652527, 0.99198914, 0.01068673, -0.00143172, -0.03366529, -153.13825989, 138.42327881, 189.54827881, -0.02227158, -0.01438292, 0.99964851, -0.00501113, -0.00038759, -0.00714056, 0.00000000, 0.00000000, 0.00000000, -0.68540035, 0.72804574, -0.00239718, -0.01303869
424168851.515571, -0.02552795, -0.01652527, 0.99198914, 0.01772520, -0.00023143, -0.02193273, -154.50709534, 138.08106995, 188.54977417, -0.02224419, -0.01442046, 0.99964857, -0.00328376, -0.00210481, -0.00765943, 0.00000000, 0.00000000, 0.00000000, -0.68543757, 0.72801073, -0.00237479, -0.01304146
424168851.531759, -0.02262878, -0.01609802, 0.99047852, 0.01182444, -0.00256995, -0.02785267, -154.33598328, 137.90997314, 191.37886047, -0.02219075, -0.01426231, 0.99965203, -0.00245219, 0.00113975, -0.00664054, 0.00000000, 0.00000000, 0.00000000, -0.68546412, 0.72798692, -0.00241451, -0.01296770
424168851.547556, -0.02406311, -0.01725769, 0.98799133, 0.01177863, -0.00489010, -0.02556422, -152.28274536, 138.93659973, 191.37886047, -0.02216362, -0.01430406, 0.99965203, -0.00093819, -0.00226698, -0.00918877, 0.00000000, 0.00000000, 0.00000000, -0.68545685, 0.72799377, -0.00238988, -0.01297215
424168851.563406, -0.02587891, -0.01380920, 0.99026489, 0.00824168, -0.00605976, -0.02911261, -152.28274536, 138.93659973, 191.37886047, -0.02216037, -0.01435664, 0.99965131, -0.00190274, -0.00290105, -0.01166001, 0.00000000, 0.00000000, 0.00000000, -0.68546714, 0.72798384, -0.00236981, -0.01298896
424168851.578829, -0.02256775, -0.01757812, 0.99421692, 0.01183535, -0.00138804, -0.02550509, -155.19151306, 138.08106995, 191.54527283, -0.02218330, -0.01431428, 0.99965143, -0.00369560, 0.00050508, -0.00938655, 0.00000000, 0.00000000, 0.00000000, -0.68546177, 0.72798893, -0.00239300, -0.01298281
424168851.595091, -0.02256775, -0.01757812, 0.99421692, 0.01072029, 0.00090974, -0.03246180, -155.36260986, 137.90997314, 191.71170044, -0.02223723, -0.01433424, 0.99964994, -0.00033052, -0.00324389, -0.00543304, 0.00000000, 0.00000000, 0.00000000, -0.68545398, 0.72799576, -0.00240409, -0.01300931
424168851.610699, -0.02394104, -0.01216125, 0.99276733, 0.01530838, -0.00490927, -0.02552773, -155.19151306, 138.76548767, 192.87660217, -0.02223736, -0.01426779, 0.99965090, 0.00078351, 0.00035177, -0.00741763, 0.00000000, 0.00000000, 0.00000000, -0.68545536, 0.72799478, -0.00242835, -0.01298658
424168851.626156, -0.02064514, -0.01712036, 0.98870850, 0.01066809, 0.00100241, -0.01733052, -155.70481873, 139.27880859, 193.70869446, -0.02222928, -0.01419302, 0.99965215, -0.00203219, -0.00408701, -0.00718999, 0.00000000, 0.00000000, 0.00000000, -0.68543254, 0.72801670, -0.00245239, -0.01295808
424168851.642567, -0.02365112, -0.01387024, 0.99124146, 0.02003390, -0.00376704, -0.02545929, -153.13825989, 139.10769653, 191.54527283, -0.02215198, -0.01423207, 0.99965328, 0.00150684, -0.00288829, -0.01094481, 0.00000000, 0.00000000, 0.00000000, -0.68541882, 0.72803001, -0.00241142, -0.01294336
424168851.657708, -0.02388000, -0.01509094, 0.98999023, 0.00952373, 0.00095181, -0.02665425, -153.13825989, 139.10769653, 191.54527283, -0.02214538, -0.01414042, 0.99965477, -0.00150574, 0.00027018, -0.00841330, 0.00000000, 0.00000000, 0.00000000, -0.68538489, 0.72806245, -0.00244192, -0.01290965
424168851.674269, -0.01994324, -0.01564026, 0.98823547, 0.01073281, 0.00449036, -0.01959927, -155.36260986, 138.59439087, 191.71170044, -0.02219566, -0.01406329, 0.99965471, -0.00168434, -0.00102765, -0.00966449, 0.00000000, 0.00000000, 0.00000000, -0.68537951, 0.72806751, -0.00248714, -0.01290154
424168851.689415, -0.01994324, -0.01564026, 0.98823547, 0.01062761, -0.00252787, -0.02204511, -154.67819214, 139.27880859, 189.71469116, -0.02222673, -0.01404899, 0.99965423, 0.00005571, -0.00059945, -0.00591034, 0.00000000, 0.00000000, 0.00000000, -0.68537635, 0.72807032, -0.00250294, -0.01290796
424168851.706049, -0.02310181, -0.01609802, 0.99473572, 0.01180819, -0.00254145, -0.02319693, -153.30935669, 138.93659973, 191.37886047, -0.02211179, -0.01407705, 0.99965638, 0.00096311, -0.00206675, -0.00719424, 0.00000000, 0.00000000, 0.00000000, -0.68535647, 0.72808976, -0.00245297, -0.01287579
424168851.720937, -0.02508545, -0.01553345, 0.99200439, 0.01655128, 0.00097046, -0.01726980, -153.99377441, 140.30543518, 191.71170044, -0.02213622, -0.01409126, 0.99965566, -0.00096559, -0.00200676, -0.00491994, 0.00000000, 0.00000000, 0.00000000, -0.68532216, 0.72812180, -0.00245557, -0.01288968
424168851.736335, -0.02485657, -0.01507568, 0.98899841, 0.00944144, -0.00490608, -0.03024446, -153.13825989, 139.10769653, 190.54678345, -0.02225323, -0.01408192, 0.99965316, -0.00283222, -0.00145153, -0.00764879, 0.00000000, 0.00000000, 0.00000000, -0.68529419, 0.72814728, -0.00249858, -0.01292918
424168851.752741, -0.02485657, -0.01507568, 0.98899841, 0.00701983, -0.00837351, -0.02683588, -153.99377441, 138.93659973, 191.04602051, -0.02221476, -0.01399931, 0.99965519, -0.00264180, -0.00107637, -0.01065679, 0.00000000, 0.00000000, 0.00000000, -0.68532078, 0.72812295, -0.00251594, -0.01288677
424168851.768033, -0.02139282, -0.01589966, 0.99346924, 0.01188622, -0.00027803, -0.03479713, -153.99377441, 138.93659973, 191.04602051, -0.02211124, -0.01403172, 0.99965703, -0.00001400, -0.00281398, -0.00919379, 0.00000000, 0.00000000, 0.00000000, -0.68532088, 0.72812349, -0.00246866, -0.01286018
424168851.784990, -0.02107239, -0.01881409, 0.99218750, 0.01057781, -0.00484083, -0.01859286, -154.67819214, 139.62101746, 187.71769714, -0.02198915, -0.01406492, 0.99965924, 0.00154237, -0.00084292, -0.00818893, 0.00000000, 0.00000000, 0.00000000, -0.68536346, 0.72808417, -0.00241547, -0.01282695
424168851.800623, -0.02510071, -0.01480103, 0.99101257, 0.01771854, -0.00142000, -0.02544437, -153.13825989, 138.76548767, 190.54678345, -0.02194053, -0.01415695, 0.99965906, 0.00129538, -0.00296341, -0.00895164, 0.00000000, 0.00000000, 0.00000000, -0.68532091, 0.72812414, -0.00236455, -0.01284093
424168851.816321, -0.02255249, -0.01803589, 0.99119568, 0.01417388, -0.00257554, -0.02666437, -154.16488647, 138.42327881, 189.88111877, -0.02192100, -0.01406537, 0.99966073, -0.00317971, -0.00073566, -0.00864819, 0.00000000, 0.00000000, 0.00000000, -0.68530722, 0.72813762, -0.00239095, -0.01280247
424168851.832330, -0.02143860, -0.01515198, 0.99021912, 0.00721291, 0.00689359, -0.01144866, -154.84930420, 137.05444336, 192.21093750, -0.02192605, -0.01411227, 0.99966002, -0.00062644, -0.00392362, -0.00846431, 0.00000000, 0.00000000, 0.00000000, -0.68529775, 0.72814627, -0.00237544, -0.01282042
424168851.847605, -0.02143860, -0.01515198, 0.99021912, 0.01075171, 0.00565735, -0.01957956, -154.16488647, 138.76548767, 191.87811279, -0.02200782, -0.01411760, 0.99965811, -0.00161278, -0.00072920, -0.00866080, 0.00000000, 0.00000000, 0.00000000, -0.68524529, 0.72819500, -0.00240061, -0.01285220
424168851.863305, -0.02265930, -0.01486206, 0.99047852, 0.00828643, -0.00253666, -0.02556155, -154.16488647, 138.76548767, 191.87811279, -0.02198687, -0.01408722, 0.99965900, 0.00033465, -0.00106476, -0.00718159, 0.00000000, 0.00000000, 0.00000000, -0.68521613, 0.72822274, -0.00240397, -0.01283425
424168851.879210, -0.02191162, -0.01487732, 0.99172974, 0.00833223, -0.00021625, -0.02785001, -154.33598328, 137.56776428, 190.71319580, -0.02200406, -0.01408672, 0.99965864, -0.00091464, -0.00005817, -0.00615888, 0.00000000, 0.00000000, 0.00000000, -0.68521781, 0.72822104, -0.00241007, -0.01284034
424168851.894819, -0.01960754, -0.01860046, 0.99118042, 0.00718947, 0.00213186, -0.02665878, -156.38923645, 138.25218201, 192.37736511, -0.02191043, -0.01408091, 0.99966079, -0.00000120, -0.00079641, -0.00793104, 0.00000000, 0.00000000, 0.00000000, -0.68525151, 0.72819005, -0.00238069, -0.01280413
424168851.910984, -0.02384949, -0.01557922, 0.99298096, 0.00367303, 0.00452844, -0.01967224, -154.67819214, 136.54113770, 193.37585449, -0.02190192, -0.01412685, 0.99966031, 0.00229437, -0.00447362, -0.00847989, 0.00000000, 0.00000000, 0.00000000, -0.68524684, 0.72819429, -0.00236097, -0.01281679
424168851.926291, -0.02384949, -0.01557922, 0.99298096, 0.00599371, 0.00097072, -0.02669073, -154.33598328, 137.56776428, 194.04151917, -0.02202903, -0.01423704, 0.99965596, -0.00058449, -0.00259340, -0.00919270, 0.00000000, 0.00000000, 0.00000000, -0.68518504, 0.72825094, -0.00236332, -0.01290105
424168851.942327, -0.02238464, -0.01559448, 0.99148560, 0.01057461, -0.00963851, -0.03962278, -154.50709534, 140.13432312, 191.21244812, -0.02204815, -0.01429088, 0.99965477, -0.00207599, -0.00080006, -0.00940513, 0.00000000, 0.00000000, 0.00000000, -0.68519562, 0.72824059, -0.00235046, -0.01292644
424168851.957852, -0.02098083, -0.01344299, 0.98999023, 0.01312512, 0.00560888, -0.02537513, -154.50709534, 140.13432312, 191.21244812, -0.02196169, -0.01426438, 0.99965703, -0.00022459, -0.00035354, -0.01166571, 0.00000000, 0.00000000, 0.00000000, -0.68522717, 0.72821167, -0.00233103, -0.01288576
424168851.973660, -0.01922607, -0.01470947, 0.99246216, 0.00712609, -0.00255903, -0.03022928, -153.65156555, 140.30543518, 192.04452515, -0.02198494, -0.01424659, 0.99965680, 0.00100410, 0.00080360, -0.00966656, 0.00000000, 0.00000000, 0.00000000, -0.68521977, 0.72821855, -0.00234534, -0.01288815
424168851.989425, -0.02307129, -0.01705933, 0.99121094, 0.01535685, -0.00139310, -0.02314074, -153.48046875, 139.10769653, 191.21244812, -0.02182606, -0.01426257, 0.99966002, 0.00259999, -0.00044690, -0.00719788, 0.00000000, 0.00000000, 0.00000000, -0.68524515, 0.72819578, -0.00228552, -0.01283568
424168852.007285, -0.02307129, -0.01705933, 0.99121094, 0.01532196, -0.00253187, -0.01850471, -153.65156555, 139.62101746, 191.37886047, -0.02185193, -0.01424645, 0.99965972, -0.00294361, -0.00301124, -0.00892179, 0.00000000, 0.00000000, 0.00000000, -0.68524027, 0.72820026, -0.00230017, -0.01283960
424168852.021110, -0.02091980, -0.01562500, 0.98896790, 0.01184867, 0.00098910, -0.01848234, -153.48046875, 140.13432312, 191.21244812, -0.02183776, -0.01429300, 0.99965936, -0.00105042, -0.00082846, -0.00866204, 0.00000000, 0.00000000, 0.00000000, -0.68524012, 0.72820028, -0.00227836, -0.01285039
424168852.036577, -0.02513123, -0.01359558, 0.99426270, 0.01069233, 0.00095954, -0.02431413, -154.50709534, 140.81874084, 191.54527283, -0.02175170, -0.01427276, 0.99966151, 0.00128966, -0.00016206, -0.00744350, 0.00000000, 0.00000000, 0.00000000, -0.68522488, 0.72821537, -0.00225596, -0.01281215
424168852.053268, -0.02116394, -0.01635742, 0.99044800, 0.01186465, 0.00096034, -0.02313808, -152.62495422, 138.93659973, 190.38035583, -0.02176459, -0.01420913, 0.99966216, -0.00336663, 0.00061355, -0.00539945, 0.00000000, 0.00000000, 0.00000000, -0.68521789, 0.72822216, -0.00228343, -0.01279506
424168852.068039, -0.02314758, -0.01484680, 0.98973083, 0.02116467, -0.00609385, -0.02315885, -152.62495422, 138.93659973, 190.38035583, -0.02176293, -0.01419037, 0.99966246, 0.00059899, -0.00216705, -0.00921445, 0.00000000, 0.00000000, 0.00000000, -0.68521779, 0.72822236, -0.00228969, -0.01278803
424168852.084293, -0.02314758, -0.01484680, 0.98973083, 0.01763599, -0.00727815, -0.02903485, -153.99377441, 139.27880859, 190.04753113, -0.02175413, -0.01413706, 0.99966341, -0.00139345, -0.00070974, -0.00993256, 0.00000000, 0.00000000, 0.00000000, -0.68517542, 0.72826255, -0.00230534, -0.01276669
424168852.100356, -0.02438354, -0.01435852, 0.99075317, 0.00945236, -0.00372416, -0.02789688, -156.56034851, 138.42327881, 190.54678345, -0.02170680, -0.01399632, 0.99966639, -0.00389745, 0.00040074, -0.00589199, 0.00000000, 0.00000000, 0.00000000, -0.68516462, 0.72827374, -0.00234018, -0.01270125
424168852.116043, -0.02238464, -0.01559448, 0.99122620, 0.00836179, 0.00213266, -0.02548299, -153.13825989, 139.44990540, 189.88111877, -0.02167221, -0.01404782, 0.99966645, 0.00050827, -0.00230960, -0.01045439, 0.00000000, 0.00000000, 0.00000000, -0.68518022, 0.72825908, -0.00230984, -0.01270626
424168852.132490, -0.02145386, -0.01441956, 0.99072266, 0.00476732, -0.00133584, -0.02325046, -155.19151306, 137.39665222, 191.87811279, -0.02162900, -0.01406581, 0.99966711, -0.00075564, -0.00152867, -0.00844092, 0.00000000, 0.00000000, 0.00000000, -0.68520478, 0.72823620, -0.00228891, -0.01269660
424168852.147226, -0.02357483, -0.01681519, 0.99171448, 0.01301460, -0.00019867, -0.02081766, -154.84930420, 137.39665222, 191.21244812, -0.02162590, -0.01417871, 0.99966556, 0.00017204, -0.00024084, -0.00894293, 0.00000000, 0.00000000, 0.00000000, -0.68518885, 0.72825066, -0.00224646, -0.01273422
424168852.166341, -0.02281189, -0.01803589, 0.99020386, 0.00950615, -0.00141813, -0.03251320, -154.33598328, 137.22555542, 192.71018982, -0.02169484, -0.01423602, 0.99966329, -0.00187999, -0.00257917, -0.00794880, 0.00000000, 0.00000000, 0.00000000, -0.68515022, 0.72828622, -0.00224854, -0.01277908
424168852.179268, -0.02281189, -0.01803589, 0.99020386, 0.01999475, -0.00489888, -0.01965919, -154.33598328, 137.22555542, 192.71018982, -0.02164523, -0.01421500, 0.99966466, -0.00073941, -0.00113534, -0.00743138, 0.00000000, 0.00000000, 0.00000000, -0.68515943, 0.72827803, -0.00223936, -0.01275378
424168852.195070, -0.02365112, -0.01411438, 0.99101257, 0.01422394, 0.00333934, -0.01376268, -154.50709534, 138.42327881, 193.87510681, -0.02170474, -0.01425107, 0.99966288, -0.00362485, -0.00080935, -0.00842139, 0.00000000, 0.00000000, 0.00000000, -0.68514130, 0.72829446, -0.00224630, -0.01278788
424168852.212130, -0.02230835, -0.01803589, 0.99169922, 0.01060710, -0.00609358, -0.03257978, -154.50709534, 138.42327881, 193.54226685, -0.02168227, -0.01416750, 0.99966455, -0.00196885, 0.00005312, -0.00865195, 0.00000000, 0.00000000, 0.00000000, -0.68515718, 0.72828009, -0.00226931, -0.01275101
424168852.226476, -0.02389526, -0.01361084, 0.99174500, 0.00484855, 0.00572473, -0.01382074, -154.67819214, 138.25218201, 192.71018982, -0.02163905, -0.01419278, 0.99966508, -0.00066930, -0.00384310, -0.00796588, 0.00000000, 0.00000000, 0.00000000, -0.68515545, 0.72828192, -0.00224526, -0.01274393
424168852.242524, -0.02389526, -0.01361084, 0.99174500, 0.01294030, -0.00607068, -0.02673574, -154.33598328, 138.59439087, 192.04452515, -0.02182485, -0.01422956, 0.99966055, -0.00207041, 0.00061872, -0.00791555, 0.00000000, 0.00000000, 0.00000000, -0.68509151, 0.72834051, -0.00229442, -0.01282441
424168852.258040, -0.02607727, -0.01504517, 0.99101257, 0.01766848, -0.00373322, -0.02199185, -153.30935669, 137.90997314, 192.71018982, -0.02170936, -0.01422822, 0.99966305, 0.00056068, -0.00191558, -0.00570555, 0.00000000, 0.00000000, 0.00000000, -0.68510348, 0.72833011, -0.00225554, -0.01278184
424168852.275385, -0.02239990, -0.01487732, 0.99273682, 0.01068593, 0.00337263, -0.01147130, -153.30935669, 137.90997314, 192.71018982, -0.02168822, -0.01418681, 0.99966413, 0.00079894, -0.00120931, -0.00419598, 0.00000000, 0.00000000, 0.00000000, -0.68512835, 0.72830708, -0.00226381, -0.01275988
424168852.289741, -0.02188110, -0.01660156, 0.98971558, 0.01766182, -0.00492205, -0.02550350, -152.79605103, 140.81874084, 190.21394348, -0.02171531, -0.01411164, 0.99966460, -0.00068459, -0.00076568, -0.00692778, 0.00000000, 0.00000000, 0.00000000, -0.68507470, 0.72835771, -0.00229953, -0.01274416
424168852.305575, -0.02331543, -0.01779175, 0.99221802, 0.01065983, -0.00258486, -0.03135686, -154.50709534, 140.81874084, 191.21244812, -0.02163629, -0.01416782, 0.99966550, -0.00024482, -0.00243374, -0.00994994, 0.00000000, 0.00000000, 0.00000000, -0.68509100, 0.72834269, -0.00225227, -0.01273457
424168852.321517, -0.02331543, -0.01779175, 0.99221802, 0.01648683, -0.00251695, -0.01500052, -152.96716309, 139.62101746, 189.38186646, -0.02171110, -0.01427174, 0.99966240, -0.00160433, -0.00352001, -0.00744440, 0.00000000, 0.00000000, 0.00000000, -0.68511965, 0.72831468, -0.00224057, -0.01279734
424168852.336742, -0.02313232, -0.01533508, 0.99023438, 0.01306307, 0.00331723, -0.01843094, -154.50709534, 140.81874084, 189.54827881, -0.02182821, -0.01432292, 0.99965912, -0.00246378, -0.00319417, -0.01267488, 0.00000000, 0.00000000, 0.00000000, -0.68503174, 0.72839624, -0.00226051, -0.01285781
424168852.352735, -0.02505493, -0.01654053, 0.99447632, 0.01893028, 0.00331404, -0.01371395, -155.02040100, 139.62101746, 190.04753113, -0.02190397, -0.01433393, 0.99965733, -0.00099948, -0.00028399, -0.00866000, 0.00000000, 0.00000000, 0.00000000, -0.68499612, 0.72842911, -0.00228183, -0.01288929
424168852.368629, -0.02458191, -0.01605225, 0.99049377, 0.01769777, -0.00498650, -0.03597931, -153.82267761, 139.44990540, 191.54527283, -0.02191379, -0.01427273, 0.99965799, -0.00314114, -0.00226780, -0.00518166, 0.00000000, 0.00000000, 0.00000000, -0.68498167, 0.72844293, -0.00230723, -0.01287195
424168852.384599, -0.02113342, -0.01686096, 0.99145508, 0.01297412, -0.00372896, -0.02553252, -153.82267761, 139.44990540, 191.54527283, -0.02193017, -0.01418696, 0.99965882, -0.00265173, -0.00186528, -0.00916507, 0.00000000, 0.00000000, 0.00000000, -0.68501427, 0.72841257, -0.00234466, -0.01284844
424168852.400600, -0.02439880, -0.01359558, 0.98828125, 0.01539866, 0.00093397, -0.02426539, -154.84930420, 138.42327881, 193.20944214, -0.02186460, -0.01422490, 0.99965972, 0.00073118, -0.00263606, -0.00820466, 0.00000000, 0.00000000, 0.00000000, -0.68501582, 0.72841142, -0.00230840, -0.01283754
424168852.416157, -0.02439880, -0.01359558, 0.98828125, 0.01646499, -0.00487998, -0.01969594, -152.96716309, 138.59439087, 191.71170044, -0.02186606, -0.01418059, 0.99966031, -0.00267007, -0.00284822, -0.00742706, 0.00000000, 0.00000000, 0.00000000, -0.68501704, 0.72841047, -0.00232506, -0.01282289
424168852.432306, -0.02188110, -0.01588440, 0.99348450, 0.02006905, 0.00097312, -0.01374111, -155.87593079, 139.10769653, 192.54377747, -0.02187824, -0.01411529, 0.99966097, -0.00171185, -0.00198273, -0.00542882, 0.00000000, 0.00000000, 0.00000000, -0.68501372, 0.72841383, -0.00235296, -0.01280496
424168852.447814, -0.02091980, -0.01516724, 0.99320984, 0.00955063, 0.00210496, -0.02896268, -155.02040100, 137.90997314, 192.04452515, -0.02178944, -0.01402291, 0.99966425, 0.00108326, -0.00065605, -0.00645439, 0.00000000, 0.00000000, 0.00000000, -0.68501564, 0.72841313, -0.00235621, -0.01274095
424168852.463953, -0.02388000, -0.01435852, 0.99198914, 0.02121874, -0.00378781, -0.02777517, -152.45384216, 138.42327881, 193.20944214, -0.02170198, -0.01398357, 0.99966669, 0.00078218, -0.00118366, -0.00645685, 0.00000000, 0.00000000, 0.00000000, -0.68502626, 0.72840399, -0.00234076, -0.01269558
