Timestamp, AccelerationX, AccelerationY, AccelerationZ, GyroX, GyroY, GyroZ, MagnetometerX, MagnetometerY, MagnetometerZ, DMUserAccelerationX, DMUserAccelerationY, DMUserAccelerationZ, DMGravityX, DMGravityY, DMGravityZ, DMMagX, DMMagY, DMMagZ, DMAttitudeX, DMAttitudeY, DMAttitudeZ, DMAttitudeW 
424168338.329165, -0.15527344, -0.86853027, -0.49247742, -0.01782267, -0.08877434, -0.02610963, -169.39315796, 168.70872498, 221.33381653, -0.14518550, -0.85504341, -0.49781716, -0.01008794, -0.01348685, 0.00533974, 0.00000000, 0.00000000, 0.00000000, -0.09629985, 0.49174969, 0.80943824, -0.30613447
424168338.345745, -0.13807678, -0.86303711, -0.48977661, -0.02224592, -0.06763790, -0.00950882, -169.39315796, 169.39314270, 221.00097656, -0.14563699, -0.85517389, -0.49746108, 0.00756021, -0.00786324, 0.00768446, 0.00000000, 0.00000000, 0.00000000, -0.09582894, 0.49202264, 0.80950677, -0.30566210
424168338.364460, -0.15052795, -0.86257935, -0.48146057, -0.00610636, -0.01758459, -0.01781575, -168.70874023, 169.05093384, 220.33531189, -0.14650121, -0.85528934, -0.49700862, -0.00402674, -0.00729003, 0.01554807, 0.00000000, 0.00000000, 0.00000000, -0.09525132, 0.49236457, 0.80947656, -0.30537193
424168338.376552, -0.15673828, -0.86018372, -0.49313354, -0.01328438, -0.02334021, -0.01100338, -169.73536682, 169.39314270, 220.66815186, -0.14706795, -0.85523015, -0.49694306, -0.01076897, -0.00887507, 0.01201874, 0.00000000, 0.00000000, 0.00000000, -0.09491391, 0.49246302, 0.80947184, -0.30533076
424168338.392465, -0.15476990, -0.86260986, -0.50988770, 0.00432923, -0.02817598, -0.02253940, -169.56427002, 170.24865723, 220.83456421, -0.14762895, -0.85509282, -0.49701300, -0.00709517, -0.00780694, -0.00115594, 0.00000000, 0.00000000, 0.00000000, -0.09460573, 0.49248681, 0.80947500, -0.30537965
424168338.408706, -0.15476990, -0.86260986, -0.50988770, 0.02575357, -0.01671773, -0.03841876, -169.22206116, 170.24865723, 219.50323486, -0.14793725, -0.85489392, -0.49726343, -0.00683264, -0.00771592, -0.01262427, 0.00000000, 0.00000000, 0.00000000, -0.09434459, 0.49240977, 0.80957120, -0.30532963
424168338.425951, -0.15550232, -0.86926270, -0.48997498, 0.00863716, 0.02325765, -0.00650530, -170.07757568, 170.07756042, 221.99948120, -0.14821124, -0.85509211, -0.49684098, -0.00729107, -0.01417061, 0.00686600, 0.00000000, 0.00000000, 0.00000000, -0.09418343, 0.49265505, 0.80949832, -0.30517692
424168338.440281, -0.14883423, -0.86901855, -0.46903992, -0.03870079, 0.00358248, -0.02129437, -170.07757568, 170.07756042, 221.99948120, -0.14824770, -0.85563308, -0.49589786, -0.00058653, -0.01338549, 0.02685793, 0.00000000, 0.00000000, 0.00000000, -0.09438358, 0.49309514, 0.80919384, -0.30521181
424168338.455308, -0.15145874, -0.86424255, -0.48320007, -0.07551633, -0.02083284, -0.03838041, -169.05094910, 169.05093384, 220.33531189, -0.14833473, -0.85554981, -0.49601549, -0.00249840, -0.00384047, 0.02132983, 0.00000000, 0.00000000, 0.00000000, -0.09439148, 0.49303398, 0.80917880, -0.30534802
424168338.471809, -0.15246582, -0.85917664, -0.52313232, -0.05447256, -0.02911128, -0.03713512, -170.93309021, 169.90644836, 220.83456421, -0.14832412, -0.85511750, -0.49676353, -0.00595750, -0.00656157, -0.00439613, 0.00000000, 0.00000000, 0.00000000, -0.09418273, 0.49269447, 0.80944472, -0.30525566
424168338.487457, -0.15246582, -0.85917664, -0.52313232, -0.03777747, -0.01518561, -0.03556439, -171.10420227, 167.68209839, 221.33381653, -0.14842021, -0.85431784, -0.49810889, -0.00404560, -0.00485879, -0.02502345, 0.00000000, 0.00000000, 0.00000000, -0.09380415, 0.49208367, 0.80988368, -0.30519315
424168338.503361, -0.14695740, -0.86253357, -0.51342773, -0.01773825, -0.01175626, -0.02947880, -170.59088135, 167.51100159, 220.16889954, -0.14837086, -0.85365272, -0.49926260, 0.00141346, -0.00888085, -0.01416515, 0.00000000, 0.00000000, 0.00000000, -0.09355260, 0.49154513, 0.81026172, -0.30513479
424168338.519128, -0.13644409, -0.86106873, -0.50299072, 0.01435497, 0.01271313, -0.00778522, -171.44641113, 166.99768066, 220.66815186, -0.14789642, -0.85343683, -0.49977222, 0.01145233, -0.00763192, -0.00321851, 0.00000000, 0.00000000, 0.00000000, -0.09361574, 0.49127384, 0.81048226, -0.30496658
424168338.534796, -0.13095093, -0.86320496, -0.48756409, 0.01234934, 0.03732447, 0.00657108, -171.44641113, 166.99768066, 220.66815186, -0.14778039, -0.85344976, -0.49978438, 0.00837609, -0.00610832, 0.00129500, 0.00000000, 0.00000000, 0.00000000, -0.09369729, 0.49125210, 0.81047524, -0.30499519
424168338.551787, -0.15043640, -0.85812378, -0.49291992, 0.02519270, 0.02902659, -0.00274439, -169.39315796, 169.39314270, 220.66815186, -0.14739595, -0.85375285, -0.49938011, 0.00806795, -0.00708698, 0.01413535, 0.00000000, 0.00000000, 0.00000000, -0.09408076, 0.49138454, 0.81030304, -0.30512133
424168338.566306, -0.15043640, -0.85812378, -0.49291992, 0.01905225, 0.01390543, 0.00043090, -169.22206116, 166.48437500, 220.83456421, -0.14749262, -0.85385013, -0.49918517, -0.00294379, -0.00427362, 0.00626526, 0.00000000, 0.00000000, 0.00000000, -0.09425556, 0.49145020, 0.81012545, -0.30543305
424168338.582347, -0.15293884, -0.86372375, -0.47996521, 0.00024235, 0.01397840, -0.00441978, -168.87985229, 168.87983704, 220.50172424, -0.14784616, -0.85420376, -0.49847507, -0.00509268, -0.00951997, 0.01850986, 0.00000000, 0.00000000, 0.00000000, -0.09429999, 0.49180278, 0.80984590, -0.30559312
424168338.598070, -0.15583801, -0.86462402, -0.48344421, -0.01764451, -0.00111480, -0.00718627, -168.19543457, 169.22204590, 220.83456421, -0.14824992, -0.85441512, -0.49799275, -0.00758809, -0.01020892, 0.01454855, 0.00000000, 0.00000000, 0.00000000, -0.09427857, 0.49205200, 0.80962950, -0.30577190
424168338.613783, -0.14865112, -0.87062073, -0.49751282, -0.03184715, -0.01049818, -0.02727716, -169.73536682, 169.39314270, 220.66815186, -0.14843535, -0.85434330, -0.49806067, -0.00320649, -0.01281366, 0.00681922, 0.00000000, 0.00000000, 0.00000000, -0.09422303, 0.49202813, 0.80960964, -0.30587998
424168338.629840, -0.15162659, -0.87023926, -0.51472473, -0.04620531, -0.02440814, -0.02416765, -168.87985229, 170.24865723, 219.17039490, -0.14849436, -0.85421747, -0.49825892, -0.00114858, -0.01637275, -0.00300756, 0.00000000, 0.00000000, 0.00000000, -0.09413103, 0.49194501, 0.80968074, -0.30585383
424168338.645275, -0.15162659, -0.87023926, -0.51472473, -0.02457805, 0.00470234, -0.01647245, -168.87985229, 170.24865723, 219.17039490, -0.14866856, -0.85362953, -0.49921373, -0.00164578, -0.01149806, -0.01897476, 0.00000000, 0.00000000, 0.00000000, -0.09382684, 0.49151772, 0.80997610, -0.30585220
424168338.661007, -0.14930725, -0.86709595, -0.52120972, 0.00102825, -0.01655554, -0.03401869, -169.90646362, 168.53762817, 221.83306885, -0.14865458, -0.85317582, -0.49999282, -0.00065267, -0.01392011, -0.02121691, 0.00000000, 0.00000000, 0.00000000, -0.09368923, 0.49114756, 0.81020414, -0.30588505
424168338.677381, -0.15164185, -0.86976624, -0.51121521, 0.00805393, -0.02253727, -0.05150340, -169.73536682, 169.39314270, 221.00097656, -0.14864548, -0.85295469, -0.50037265, -0.00299638, -0.01681154, -0.01084254, 0.00000000, 0.00000000, 0.00000000, -0.09360728, 0.49096980, 0.81032536, -0.30587439
424168338.693088, -0.15577698, -0.86849976, -0.49595642, 0.02004881, -0.01099912, -0.06282424, -168.70874023, 170.76197815, 221.66664124, -0.14860569, -0.85301220, -0.50028646, -0.00372281, -0.01751697, 0.00103413, 0.00000000, 0.00000000, 0.00000000, -0.09352300, 0.49102976, 0.81037692, -0.30566726
424168338.708583, -0.15689087, -0.86599731, -0.50840759, 0.01677552, 0.00897752, -0.04390274, -169.90646362, 169.56425476, 221.50022888, -0.14842106, -0.85329008, -0.49986717, -0.00962948, -0.01319549, 0.00018760, 0.00000000, 0.00000000, 0.00000000, -0.09354780, 0.49123846, 0.81035362, -0.30538597
424168338.726582, -0.15783691, -0.85931396, -0.52110291, 0.03634363, -0.02518125, -0.07685750, -169.22206116, 169.22204590, 221.83306885, -0.14830005, -0.85329598, -0.49989301, -0.01290906, -0.00768116, -0.01695270, 0.00000000, 0.00000000, 0.00000000, -0.09356008, 0.49122297, 0.81039386, -0.30530032
424168338.741679, -0.15783691, -0.85931396, -0.52110291, 0.03080745, -0.07291442, -0.06141809, -169.22206116, 169.22204590, 221.83306885, -0.14795747, -0.85339963, -0.49981758, -0.00987944, -0.00591431, -0.02128532, 0.00000000, 0.00000000, 0.00000000, -0.09363756, 0.49124659, 0.81045491, -0.30507644
424168338.755606, -0.14744568, -0.86203003, -0.50694275, 0.01132882, -0.04011546, -0.05990967, -169.56427002, 169.22204590, 221.50022888, -0.14784826, -0.85360402, -0.49950078, 0.00040259, -0.00842599, -0.00744196, 0.00000000, 0.00000000, 0.00000000, -0.09347423, 0.49143888, 0.81053916, -0.30459263
424168338.771732, -0.14506531, -0.86560059, -0.48025513, 0.01545885, -0.00757936, -0.08027300, -170.07757568, 169.05093384, 220.66815186, -0.14759932, -0.85392314, -0.49902871, 0.00636398, -0.00980058, 0.01053384, 0.00000000, 0.00000000, 0.00000000, -0.09338742, 0.49169547, 0.81059782, -0.30404857
424168338.787694, -0.15351868, -0.86099243, -0.48767090, 0.02688914, -0.02385633, -0.05947584, -170.24867249, 168.87983704, 221.83306885, -0.14694278, -0.85443360, -0.49834833, -0.00643857, -0.01096863, 0.01514826, 0.00000000, 0.00000000, 0.00000000, -0.09362418, 0.49199629, 0.81056395, -0.30357907
424168338.805323, -0.15008545, -0.86367798, -0.50894165, 0.01934201, -0.04936941, -0.03903076, -170.59088135, 167.85321045, 221.83306885, -0.14676930, -0.85469413, -0.49795252, -0.00925182, -0.00548958, 0.00082117, 0.00000000, 0.00000000, 0.00000000, -0.09364994, 0.49219247, 0.81053904, -0.30331952
424168338.819976, -0.15008545, -0.86367798, -0.50894165, 0.03660408, -0.00523071, -0.05906332, -170.41978455, 166.99768066, 222.33230591, -0.14672242, -0.85482681, -0.49773854, -0.00336303, -0.00885116, -0.01120312, 0.00000000, 0.00000000, 0.00000000, -0.09352646, 0.49232463, 0.81059347, -0.30299752
424168338.835295, -0.15061951, -0.86151123, -0.50143433, 0.05524062, 0.06136562, -0.03215208, -170.41978455, 166.99768066, 222.33230591, -0.14647534, -0.85501993, -0.49747950, -0.00414416, -0.00649127, -0.00395483, 0.00000000, 0.00000000, 0.00000000, -0.09354673, 0.49245229, 0.81062214, -0.30270693
424168338.851082, -0.13592529, -0.86944580, -0.48883057, 0.06430043, 0.11149244, -0.03471191, -169.22206116, 168.53762817, 222.49873352, -0.14585188, -0.85546577, -0.49689585, 0.00808028, -0.00952444, 0.00534923, 0.00000000, 0.00000000, 0.00000000, -0.09402206, 0.49265802, 0.81044611, -0.30269628
424168338.866519, -0.14689636, -0.85498047, -0.50163269, 0.03945127, 0.09506287, -0.07132585, -169.90646362, 168.87983704, 221.50022888, -0.14480290, -0.85609913, -0.49611133, 0.00057683, -0.00557998, 0.00563281, 0.00000000, 0.00000000, 0.00000000, -0.09493456, 0.49288109, 0.81011596, -0.30293200
424168338.882612, -0.14689636, -0.85498047, -0.50163269, 0.07377436, 0.09812337, -0.11281603, -169.56427002, 168.19541931, 221.16740417, -0.14372662, -0.85622346, -0.49620968, -0.01627705, 0.00548493, -0.01605837, 0.00000000, 0.00000000, 0.00000000, -0.09568670, 0.49268571, 0.81005198, -0.30318417
424168338.898320, -0.17176819, -0.84999084, -0.51269531, 0.08733278, 0.13178333, -0.13189891, -169.39315796, 169.05093384, 220.33531189, -0.14241503, -0.85659403, -0.49594826, -0.02935315, 0.00660316, -0.01674705, 0.00000000, 0.00000000, 0.00000000, -0.09649384, 0.49266095, 0.80997288, -0.30317992
424168338.913854, -0.17817688, -0.84599304, -0.49639893, 0.12443913, 0.17009184, -0.13319960, -170.59088135, 168.87983704, 221.50022888, -0.14122462, -0.85718155, -0.49527305, -0.03695226, 0.01118850, -0.00112586, 0.00000000, 0.00000000, 0.00000000, -0.09732902, 0.49283925, 0.80975955, -0.30319300
424168338.930237, -0.19017029, -0.84385681, -0.47883606, 0.13259852, 0.23654596, -0.13898825, -169.39315796, 170.07756042, 219.66964722, -0.13928989, -0.85817802, -0.49409392, -0.04917142, 0.01383294, 0.00825407, 0.00000000, 0.00000000, 0.00000000, -0.09870023, 0.49316458, 0.80938949, -0.30320886
424168338.945582, -0.17637634, -0.84757996, -0.47543335, 0.11965530, 0.23661574, -0.13912220, -169.39315796, 170.07756042, 219.66964722, -0.13782060, -0.85930479, -0.49254519, -0.05277694, 0.01468504, 0.02420718, 0.00000000, 0.00000000, 0.00000000, -0.10009904, 0.49366749, 0.80877177, -0.30358000
424168338.962111, -0.10598755, -0.85803223, -0.51438904, 0.09901979, 0.20062365, -0.12597178, -169.90646362, 170.24865723, 219.83605957, -0.13530600, -0.86038351, -0.49135780, -0.01168191, 0.00978232, -0.00226403, 0.00000000, 0.00000000, 0.00000000, -0.10202440, 0.49387460, 0.80826375, -0.30395495
424168338.977229, -0.10598755, -0.85803223, -0.51438904, 0.09569483, 0.29786178, -0.07084461, -170.07757568, 170.41976929, 220.00248718, -0.13221732, -0.86128998, -0.49061000, 0.02622977, 0.00325775, -0.02377905, 0.00000000, 0.00000000, 0.00000000, -0.10398772, 0.49384366, 0.80801273, -0.30400728
424168338.993378, -0.08377075, -0.86276245, -0.48809814, 0.14619103, 0.58602407, -0.05037582, -169.73536682, 169.05093384, 221.33381653, -0.12931238, -0.86209679, -0.48996672, 0.04554163, -0.00066564, 0.00186858, 0.00000000, 0.00000000, 0.00000000, -0.10609210, 0.49372168, 0.80762745, -0.30450168
424168339.008779, -0.14147949, -0.84370422, -0.47085571, 0.15054530, 1.04274448, -0.18469848, -170.59088135, 169.56425476, 218.83757019, -0.12471807, -0.86312830, -0.48934135, -0.01676142, 0.01942406, 0.01848565, 0.00000000, 0.00000000, 0.00000000, -0.10975535, 0.49323735, 0.80687685, -0.30597457
424168339.024132, -0.28564453, -0.81913757, -0.44659424, 0.29410300, 1.20501035, -0.43538077, -170.93309021, 170.59086609, 220.16889954, -0.11671249, -0.86447257, -0.48894316, -0.14401445, 0.10548512, 0.17130095, 0.00000000, 0.00000000, 0.00000000, -0.11604720, 0.49199742, 0.80573055, -0.30865816
424168339.040919, -0.16044617, -0.82910156, -0.53680420, 0.40293494, 1.15023872, -0.51430381, -170.93309021, 170.59086609, 220.16889954, -0.10302438, -0.86693776, -0.48765248, -0.12308036, 0.00338183, -0.00734264, 0.00000000, 0.00000000, 0.00000000, -0.12537291, 0.49036251, 0.80452677, -0.31074572
424168339.055850, -0.16044617, -0.82910156, -0.53680420, 0.50819558, 0.83972399, -0.42411506, -171.27529907, 169.56425476, 219.83605957, -0.08776055, -0.87004238, -0.48510236, -0.07268561, 0.04094085, -0.05170185, 0.00000000, 0.00000000, 0.00000000, -0.13545579, 0.48897910, 0.80315938, -0.31222778
424168339.071915, -0.05197144, -0.86628723, -0.51753235, 0.58826592, 0.74249144, -0.21889613, -171.95971680, 169.90644836, 219.17039490, -0.07449333, -0.87419271, -0.47983110, 0.02252190, 0.00790546, -0.03770125, 0.00000000, 0.00000000, 0.00000000, -0.14426050, 0.48915576, 0.80141267, -0.31249526
424168339.088114, -0.02192688, -0.87309265, -0.43910217, 0.63664517, 0.99030524, -0.11765127, -171.95971680, 169.22204590, 218.83757019, -0.06517988, -0.87863451, -0.47302538, 0.04325300, 0.00554185, 0.03392320, 0.00000000, 0.00000000, 0.00000000, -0.15138406, 0.49047954, 0.79906134, -0.31307134
424168339.103546, -0.08123779, -0.86318970, -0.38923645, 0.75560218, 1.57197824, -0.14045085, -173.67076111, 168.53762817, 218.17190552, -0.05698952, -0.88324761, -0.46543083, 0.01257118, 0.01297784, 0.05744131, 0.00000000, 0.00000000, 0.00000000, -0.15891467, 0.49196618, 0.79591472, -0.31501613
424168339.119748, -0.12837219, -0.84960938, -0.40881348, 0.78515289, 1.90338254, -0.32082995, -172.47303772, 169.39314270, 218.00547791, -0.04560675, -0.88849384, -0.45661658, -0.06910883, 0.02597555, 0.08456152, 0.00000000, 0.00000000, 0.00000000, -0.16964440, 0.49286153, 0.79164636, -0.31875433
424168339.135464, -0.12837219, -0.84960938, -0.40881348, 0.76473736, 1.62228242, -0.49566301, -172.64413452, 170.59086609, 217.50624084, -0.02920533, -0.89418477, -0.44674450, -0.09916686, 0.04457539, 0.03793103, 0.00000000, 0.00000000, 0.00000000, -0.18403752, 0.49270472, 0.78660615, -0.32345481
424168339.151401, -0.00395203, -0.90213013, -0.49612427, 0.58258353, 1.11270945, -0.57357699, -172.64413452, 170.59086609, 217.50624084, -0.01112093, -0.89963663, -0.43649772, 0.00716890, -0.00249350, -0.05962653, 0.00000000, 0.00000000, 0.00000000, -0.19838427, 0.49233608, 0.78210395, -0.32643878
424168339.166629, 0.03141785, -0.92591858, -0.42509460, 0.39901051, 1.25846319, -0.57189520, -172.64413452, 170.24865723, 217.17340088, 0.00529899, -0.90407699, -0.42733672, 0.02611886, -0.02184156, 0.00224211, 0.00000000, 0.00000000, 0.00000000, -0.21011690, 0.49212044, 0.77886640, -0.32716280
424168339.182453, -0.10272217, -0.94633484, -0.26965332, 0.27817224, 1.87223234, -0.52333699, -171.95971680, 170.24865723, 216.17491150, 0.02078376, -0.90697372, -0.42067412, -0.07129035, -0.04103959, 0.10100250, 0.00000000, 0.00000000, 0.00000000, -0.22037524, 0.49101700, 0.77662634, -0.32739668
424168339.198805, -0.14616394, -0.88629150, -0.24894714, 0.30383259, 2.36343909, -0.53465356, -174.86849976, 170.41976929, 214.67715454, 0.03915071, -0.90872765, -0.41554943, -0.16166353, -0.01175883, 0.15070263, 0.00000000, 0.00000000, 0.00000000, -0.23337041, 0.48761002, 0.77378882, -0.33019022
424168339.214081, -0.14616394, -0.88629150, -0.24894714, 0.50695269, 2.49463945, -0.46749369, -174.01296997, 170.24865723, 215.50923157, 0.06083061, -0.91010344, -0.40989193, -0.20699455, 0.02381191, 0.16094480, 0.00000000, 0.00000000, 0.00000000, -0.24955402, 0.48246950, 0.76982116, -0.33514379
424168339.229878, -0.05911255, -0.86482239, -0.21533203, 0.65791903, 2.48927558, -0.25534522, -174.01296997, 170.24865723, 215.84207153, 0.08360449, -0.91225636, -0.40099710, -0.14271703, 0.04743395, 0.18566506, 0.00000000, 0.00000000, 0.00000000, -0.26748392, 0.47744508, 0.76446233, -0.34072848
424168339.245909, 0.11920166, -0.81506348, -0.23118591, 0.79125312, 2.33083800, -0.08550878, -174.01296997, 170.24865723, 215.84207153, 0.10363758, -0.91563529, -0.38842157, 0.01556408, 0.10057180, 0.15723564, 0.00000000, 0.00000000, 0.00000000, -0.28537884, 0.47365403, 0.75749941, -0.34699486
424168339.261696, 0.21002197, -0.78465271, -0.39155579, 0.84768950, 2.17386916, -0.12594888, -175.03959656, 170.59086609, 214.17790222, 0.11959938, -0.91983068, -0.37364092, 0.06732079, 0.12840305, 0.03460588, 0.00000000, 0.00000000, 0.00000000, -0.30199281, 0.47114741, 0.74956044, -0.35352454
424168339.277178, 0.10346985, -0.80793762, -0.34516907, 0.83868775, 2.36626523, -0.35793418, -176.23731995, 170.41976929, 213.34582520, 0.13342151, -0.92459357, -0.35682690, 0.04120007, 0.13229620, -0.00636280, 0.00000000, 0.00000000, 0.00000000, -0.31776576, 0.46969296, 0.74112533, -0.35936986
424168339.293599, 0.10346985, -0.80793762, -0.34516907, 0.96853736, 3.12480835, -0.65234264, -175.89511108, 169.39314270, 212.01449585, 0.14940245, -0.92855734, -0.33979428, -0.04593261, 0.12061973, -0.00537478, 0.00000000, 0.00000000, 0.00000000, -0.33409333, 0.46742326, 0.73301951, -0.36411475
424168339.308989, -0.01075745, -0.79364014, -0.23126221, 1.17742293, 3.88977181, -0.97142476, -175.21069336, 170.07756042, 210.35032654, 0.17215163, -0.93191361, -0.31921917, -0.18290907, 0.13827345, 0.08795697, 0.00000000, 0.00000000, 0.00000000, -0.35518200, 0.46285652, 0.72341556, -0.36916055
424168339.325077, -0.01922607, -0.87522888, -0.15095520, 1.33887361, 4.24818882, -1.38857219, -175.55290222, 168.70872498, 208.35333252, 0.20207854, -0.93471825, -0.29234579, -0.22130461, 0.05948937, 0.14139058, 0.00000000, 0.00000000, 0.00000000, -0.38205702, 0.45591616, 0.71130598, -0.37445520
424168339.340867, -0.04801941, -0.83372498, -0.15194702, 1.34676216, 4.36138195, -1.76835281, -178.11947632, 168.53762817, 208.85258484, 0.23827720, -0.93610299, -0.25871837, -0.26838279, 0.06528389, 0.10684764, 0.00000000, 0.00000000, 0.00000000, -0.41343983, 0.44688737, 0.69723282, -0.37845155
424168339.356180, 0.03669739, -0.79522705, -0.08395386, 0.90980001, 3.92102134, -2.01769686, -178.11947632, 168.53762817, 208.85258484, 0.27888748, -0.93453050, -0.22107577, -0.31122085, 0.13683154, 0.08681369, 0.00000000, 0.00000000, 0.00000000, -0.44684389, 0.43565199, 0.68267133, -0.38012858
424168339.372387, 0.03669739, -0.79522705, -0.08395386, 0.48050031, 3.20538868, -2.03645351, -178.11947632, 167.16879272, 206.52275085, 0.32042801, -0.92885524, -0.18588665, -0.15505327, 0.13329248, 0.10214641, 0.00000000, 0.00000000, 0.00000000, -0.47854675, 0.42195934, 0.66978256, -0.37991399
424168339.387916, 0.31602478, -0.77931213, -0.01156616, 0.12293684, 2.63865761, -1.69233607, -177.77726746, 166.14216614, 205.85708618, 0.35950509, -0.91958708, -0.15847929, -0.04348031, 0.14027496, 0.14691313, 0.00000000, 0.00000000, 0.00000000, -0.50511891, 0.40695852, 0.66050260, -0.37812161
424168339.403759, 0.48852539, -0.76589966, -0.02322388, 0.26740854, 2.48968384, -1.30108762, -176.40843201, 166.14216614, 204.85858154, 0.39223948, -0.90931672, -0.13889325, 0.09628592, 0.14341705, 0.11566938, 0.00000000, 0.00000000, 0.00000000, -0.52599602, 0.39227740, 0.65383391, -0.37675967
424168339.419772, 0.36085510, -0.71388245, -0.10618591, 0.76839548, 2.35591752, -1.15842687, -177.60615540, 165.62884521, 206.68916321, 0.41731074, -0.90077525, -0.12023184, 0.02877996, 0.14996654, 0.03670522, 0.00000000, 0.00000000, 0.00000000, -0.54372597, 0.37979751, 0.64677822, -0.37655525
424168339.435177, 0.30039978, -0.69021606, -0.06619263, 1.13524778, 2.32317103, -1.22265033, -177.43505859, 165.79995728, 204.52575684, 0.43789256, -0.89391863, -0.09570558, -0.14106333, 0.19680561, -0.00123351, 0.00000000, 0.00000000, 0.00000000, -0.56111250, 0.37054011, 0.63799984, -0.37524524
424168339.451904, 0.30039978, -0.69021606, -0.06619263, 1.40520177, 2.12533651, -1.26503587, -177.43505859, 165.79995728, 204.52575684, 0.45733097, -0.88693184, -0.06480960, -0.13219669, 0.16784616, -0.01374265, 0.00000000, 0.00000000, 0.00000000, -0.57916599, 0.36354086, 0.62800742, -0.37149896
424168339.466808, 0.33059692, -0.76516724, -0.14962769, 1.41805791, 1.83836226, -1.22546583, -177.26394653, 165.28663635, 205.02500916, 0.47615197, -0.87883800, -0.03038237, -0.14555505, 0.11367075, -0.11924531, 0.00000000, 0.00000000, 0.00000000, -0.59732898, 0.35778052, 0.61761510, -0.36570860
424168339.482446, 0.38449097, -0.69194031, -0.09442139, 1.18573626, 1.46071057, -1.15388778, -177.09284973, 164.77333069, 202.52876282, 0.49343273, -0.86977255, 0.00445950, -0.10894176, 0.17783222, -0.09888089, 0.00000000, 0.00000000, 0.00000000, -0.61431408, 0.35333831, 0.60773643, -0.35836669
424168339.499619, 0.38516235, -0.68675232, 0.08514404, 1.00435501, 1.68150686, -1.09506414, -177.60615540, 164.60221863, 200.36534119, 0.50878042, -0.86022955, 0.03387679, -0.11362356, 0.17576604, -0.09582748, 0.00000000, 0.00000000, 0.00000000, -0.62843704, 0.34929254, 0.59988601, -0.35099626
424168339.514290, 0.39611816, -0.75672913, 0.28828430, 0.86156697, 2.01962206, -1.09556455, -175.38180542, 165.79995728, 201.19743347, 0.52225399, -0.85061038, 0.06093229, -0.14111993, 0.16806951, 0.16637790, 0.00000000, 0.00000000, 0.00000000, -0.64171778, 0.34447705, 0.59207870, -0.34492994
424168339.530167, 0.39611816, -0.75672913, 0.28828430, 1.00197281, 2.24127776, -1.18118092, -177.26394653, 163.91781616, 199.69967651, 0.53415668, -0.84068763, 0.08899983, -0.09030904, 0.06433568, 0.19186869, 0.00000000, 0.00000000, 0.00000000, -0.65595344, 0.33797190, 0.58265455, -0.34060793
424168339.546203, 0.52674866, -0.73451233, 0.18780518, 1.29368083, 2.13508581, -1.29746199, -179.83052063, 163.06228638, 199.20042419, 0.54542321, -0.82956898, 0.11970295, -0.01867457, 0.09505666, 0.06810223, 0.00000000, 0.00000000, 0.00000000, -0.67132962, 0.33040583, 0.57180630, -0.33643139
424168339.561848, 0.67173767, -0.70133972, 0.08909607, 1.53105451, 1.80165591, -1.40064537, -179.83052063, 163.06228638, 199.20042419, 0.55680001, -0.81619495, 0.15427123, 0.11493769, 0.11485521, -0.06517516, 0.00000000, 0.00000000, 0.00000000, -0.68747183, 0.32329260, 0.56022715, -0.33016652
424168339.577523, 0.67242432, -0.73410034, 0.01789856, 1.63695351, 1.49720892, -1.46281740, -178.63278198, 161.52235413, 197.03701782, 0.56874168, -0.80032438, 0.18977296, 0.13421547, 0.10011381, -0.19100893, 0.00000000, 0.00000000, 0.00000000, -0.70303612, 0.31721711, 0.54945150, -0.32127336
424168339.593612, 0.64897156, -0.74102783, 0.11361694, 1.60675992, 1.54349813, -1.36459336, -177.77726746, 160.32461548, 198.53475952, 0.58140653, -0.78203017, 0.22448879, 0.07096771, 0.04164321, -0.10914761, 0.00000000, 0.00000000, 0.00000000, -0.71748266, 0.31219070, 0.54005530, -0.30999334
424168339.609287, 0.55596924, -0.67912292, 0.25350952, 1.53857714, 1.86443993, -1.24355828, -178.46168518, 160.32461548, 195.87210083, 0.59271622, -0.76305610, 0.25774583, 0.02996446, 0.05050116, -0.08405504, 0.00000000, 0.00000000, 0.00000000, -0.73098855, 0.30745512, 0.53100892, -0.29859104
424168339.625366, 0.55596924, -0.67912292, 0.25350952, 1.43696396, 2.29152362, -1.16532765, -177.09284973, 159.64019775, 194.87361145, 0.59994841, -0.74445951, 0.29298797, -0.04397919, 0.06533657, -0.03947844, 0.00000000, 0.00000000, 0.00000000, -0.74495950, 0.30253815, 0.51985378, -0.28854475
424168339.640788, 0.59175110, -0.70356750, 0.43339539, 1.36783389, 2.78681592, -0.97505012, -176.57952881, 158.44247437, 193.04302979, 0.60316598, -0.72611189, 0.33007926, -0.01141489, 0.02254439, 0.10331614, 0.00000000, 0.00000000, 0.00000000, -0.75959872, 0.29673120, 0.50645416, -0.28011527
424168339.656778, 0.73373413, -0.69459534, 0.47659302, 1.37108934, 2.94402418, -0.84203668, -174.01296997, 157.92916870, 194.20793152, 0.59998655, -0.70882529, 0.37092164, 0.13374758, 0.01422995, 0.10567138, 0.00000000, 0.00000000, 0.00000000, -0.77541224, 0.29016663, 0.48938928, -0.27392939
424168339.672351, 0.64414978, -0.68949890, 0.35778809, 1.49558839, 2.37683825, -0.71403317, -174.01296997, 157.92916870, 194.20793152, 0.59132499, -0.69249326, 0.41326487, 0.09879953, 0.01483518, 0.04275929, 0.00000000, 0.00000000, 0.00000000, -0.79129430, 0.28370014, 0.47009767, -0.26902741
424168339.688412, 0.61573792, -0.69306946, 0.23580933, 1.62615572, 1.31834570, -0.56274458, -173.84187317, 155.70480347, 195.04002380, 0.58130217, -0.67572069, 0.45330927, 0.03902863, -0.01858472, -0.17683528, 0.00000000, 0.00000000, 0.00000000, -0.80555131, 0.27882203, 0.45184777, -0.26301892
424168339.703915, 0.61573792, -0.69306946, 0.23580933, 1.61540241, 0.95086462, -0.53873139, -175.72401428, 157.24475098, 192.21093750, 0.57500696, -0.65869439, 0.48527175, 0.04073093, -0.03437508, -0.24946243, 0.00000000, 0.00000000, 0.00000000, -0.81596669, 0.27718989, 0.43882203, -0.25455716
424168339.720143, 0.58430481, -0.65098572, 0.48182678, 1.56932387, 1.12411337, -0.68995180, -174.01296997, 155.53370667, 193.87510681, 0.57244784, -0.64127839, 0.51094568, 0.01185697, -0.00970732, -0.02911890, 0.00000000, 0.00000000, 0.00000000, -0.82371756, 0.27742068, 0.42982301, -0.24449814
424168339.735640, 0.57868958, -0.65521240, 0.59643555, 1.72548657, 1.43043948, -0.84964293, -174.35517883, 155.87591553, 191.54527283, 0.56979322, -0.62279135, 0.53615910, 0.00889637, -0.03242102, 0.06027642, 0.00000000, 0.00000000, 0.00000000, -0.83155762, 0.27675168, 0.42064290, -0.23447811
424168339.751806, 0.64675903, -0.56512451, 0.64370728, 2.01464142, 1.67083078, -0.98344121, -174.52629089, 156.38922119, 190.04753113, 0.56561249, -0.60160369, 0.56405276, 0.07234224, -0.03613741, 0.05565242, 0.00000000, 0.00000000, 0.00000000, -0.84060846, 0.27459755, 0.40961375, -0.22403166
424168339.767709, 0.59565735, -0.68356323, 0.75344849, 2.15000270, 2.03304040, -0.99460305, -173.15745544, 155.36259460, 188.05053711, 0.55980039, -0.57585436, 0.59583151, 0.05485413, -0.04330150, 0.16150793, 0.00000000, 0.00000000, 0.00000000, -0.85089256, 0.27184116, 0.39657753, -0.21168489
424168339.782870, 0.59565735, -0.68356323, 0.75344849, 2.04285228, 1.78543752, -1.11391586, -173.15745544, 155.36259460, 188.05053711, 0.54920530, -0.54723144, 0.63159424, 0.04645205, -0.13633180, 0.12185425, 0.00000000, 0.00000000, 0.00000000, -0.86239931, 0.26844842, 0.38032599, -0.19888445
424168339.798912, 0.48881531, -0.57699585, 0.55165100, 1.74340831, 1.14431372, -1.23947752, -172.47303772, 151.94052124, 189.38186646, 0.53863299, -0.51677543, 0.66544551, -0.04981766, -0.06022044, -0.11379450, 0.00000000, 0.00000000, 0.00000000, -0.87333406, 0.26459473, 0.36455264, -0.18541473
424168339.814783, 0.48425293, -0.41857910, 0.73651123, 1.28682825, 1.04656372, -1.02590132, -171.27529907, 151.08499146, 187.21844482, 0.53331500, -0.48675850, 0.69183904, -0.04906208, 0.06817939, 0.04467218, 0.00000000, 0.00000000, 0.00000000, -0.88232559, 0.25965570, 0.35283918, -0.17200288
424168339.830711, 0.62104797, -0.39448547, 0.88948059, 1.05971947, 1.18503585, -0.72684164, -171.44641113, 149.88726807, 188.05053711, 0.53062671, -0.46243736, 0.71034282, 0.08123547, 0.05618737, 0.04098466, 0.00000000, 0.00000000, 0.00000000, -0.88906540, 0.25442905, 0.34462058, -0.16144729
424168339.845937, 0.47270203, -0.43585205, 0.64877319, 1.22526609, 0.93405928, -0.77236812, -170.07757568, 149.54505920, 188.71620178, 0.52261847, -0.44289556, 0.72850084, 0.05376701, 0.02454535, 0.06440690, 0.00000000, 0.00000000, 0.00000000, -0.89528305, 0.25043696, 0.33486180, -0.15367879
424168339.862865, 0.47270203, -0.43585205, 0.64877319, 1.39501251, 0.98694113, -0.94429594, -169.05094910, 148.51843262, 186.71920776, 0.51567411, -0.42369312, 0.74469078, -0.04297212, -0.01215893, -0.09591756, 0.00000000, 0.00000000, 0.00000000, -0.90067420, 0.24724759, 0.32625352, -0.14564774
424168339.877733, 0.34274292, -0.45903015, 0.86537170, 1.40364009, 1.57592957, -1.01467956, -169.05094910, 148.51843262, 186.71920776, 0.51024175, -0.40059572, 0.76103640, -0.16749883, -0.05843443, 0.10433529, 0.00000000, 0.00000000, 0.00000000, -0.90626877, 0.24330049, 0.31792715, -0.13566177
424168339.893889, 0.40072632, -0.33558655, 0.88226318, 1.41678732, 1.47399788, -0.87425080, -169.90646362, 147.66291809, 187.55128479, 0.49925616, -0.37600586, 0.78061700, -0.09852985, 0.04041930, 0.10164619, 0.00000000, 0.00000000, 0.00000000, -0.91298186, 0.23827005, 0.30629987, -0.12598370
424168339.909222, 0.66168213, -0.33277893, 0.83355713, 1.34267234, 0.98792171, -0.44901242, -168.02432251, 146.80738831, 188.38336182, 0.48525813, -0.35118258, 0.80074674, 0.05993840, 0.02995455, 0.03857821, 0.00000000, 0.00000000, 0.00000000, -0.91972643, 0.23340237, 0.29336251, -0.11646918
424168339.924881, 0.77308655, -0.30883789, 0.78038025, 1.16125648, 0.56678779, 0.00179604, -167.51101685, 145.26745605, 189.88111877, 0.47346655, -0.32947713, 0.81686854, 0.26966700, 0.00806601, -0.03015592, 0.00000000, 0.00000000, 0.00000000, -0.92465019, 0.23120620, 0.28288677, -0.10742808
424168339.940867, 0.77308655, -0.30883789, 0.78038025, 0.85888144, 0.50682752, 0.04303029, -169.22206116, 144.58303833, 189.21545410, 0.46515736, -0.31258503, 0.82820243, 0.30792919, 0.00374714, -0.04782216, 0.00000000, 0.00000000, 0.00000000, -0.92735876, 0.23260897, 0.27572321, -0.09937559
424168339.956866, 0.60002136, -0.17225647, 0.85218811, 0.93695893, 0.50325968, -0.08889632, -167.33990479, 147.14959717, 189.04902649, 0.45751825, -0.30118722, 0.83663809, 0.14250311, 0.12893076, 0.01555001, 0.00000000, 0.00000000, 0.00000000, -0.92908682, 0.23476952, 0.26994091, -0.09387682
424168339.973355, 0.49908447, -0.19049072, 1.02194214, 1.11378164, 0.90677972, 0.01163295, -166.82659912, 145.60966492, 188.88261414, 0.45185921, -0.28902301, 0.84397215, 0.04722528, 0.09853230, 0.17797001, 0.00000000, 0.00000000, 0.00000000, -0.93070667, 0.23615920, 0.26508199, -0.08800835
424168339.988548, 0.57925415, -0.29043579, 1.04612732, 1.29154125, 1.22514731, 0.12238850, -166.82659912, 145.60966492, 188.88261414, 0.44148690, -0.27500945, 0.85408378, 0.11872428, 0.02731352, 0.19074653, 0.00000000, 0.00000000, 0.00000000, -0.93304344, 0.23763802, 0.25742049, -0.08180951
424168340.004008, 0.33811951, -0.24888611, 0.95275879, 1.30653911, 1.45140974, -0.08550345, -166.31327820, 146.46517944, 187.05203247, 0.42556518, -0.25932851, 0.86697346, -0.00822203, -0.02192149, 0.10652201, 0.00000000, 0.00000000, 0.00000000, -0.93578928, 0.24038544, 0.24669773, -0.07518970
424168340.020414, 0.33811951, -0.24888611, 0.95275879, 1.04639008, 1.65329813, -0.13489444, -164.43113708, 144.92524719, 187.21844482, 0.40644729, -0.24109098, 0.88129210, -0.04749954, -0.06919649, 0.08208682, 0.00000000, 0.00000000, 0.00000000, -0.93914977, 0.24216472, 0.23393423, -0.06803481
424168340.035672, 0.36566162, -0.39476013, 0.94966125, 0.74360038, 1.53492195, 0.08808965, -164.77334595, 144.24082947, 186.55278015, 0.38424993, -0.22460496, 0.89549124, -0.01858831, -0.17015517, 0.05416999, 0.00000000, 0.00000000, 0.00000000, -0.94283237, 0.24251340, 0.21986542, -0.06255849
424168340.051686, 0.43026733, -0.47489929, 0.87396240, 0.67217893, 1.25691643, 0.37367293, -163.57562256, 145.43855286, 186.05352783, 0.36160183, -0.21277700, 0.90772796, 0.06866552, -0.26212230, -0.03376557, 0.00000000, 0.00000000, 0.00000000, -0.94587894, 0.24326325, 0.20641956, -0.05938837
424168340.067714, 0.46405029, -0.40928650, 0.92224121, 0.78587567, 0.76733421, 0.58433083, -163.23341370, 142.70088196, 186.05352783, 0.34089667, -0.20472653, 0.91753829, 0.08528130, -0.20855777, -0.01607954, 0.00000000, 0.00000000, 0.00000000, -0.94778008, 0.24593100, 0.19475162, -0.05746882
424168340.083225, 0.16328430, -0.19784546, 0.95019531, 0.83685257, 0.19466616, 0.51361618, -163.23341370, 142.70088196, 186.05352783, 0.32542571, -0.19729148, 0.92475629, -0.03199920, -0.13086404, -0.03631329, 0.00000000, 0.00000000, 0.00000000, -0.94839404, 0.25085232, 0.18606139, -0.05479980
424168340.098886, 0.16328430, -0.19784546, 0.95019531, 0.50676094, 0.38584917, 0.55991843, -161.69346619, 144.58303833, 185.55429077, 0.31747371, -0.18839967, 0.92936325, -0.06504755, -0.01663267, -0.07789228, 0.00000000, 0.00000000, 0.00000000, -0.94823211, 0.25600290, 0.18102844, -0.05046869
424168340.114806, 0.30738831, -0.21223450, 1.21495056, 0.52236626, 0.61311934, 0.51732091, -162.72009277, 144.24082947, 185.88711548, 0.31291199, -0.18147974, 0.93228281, -0.00552368, -0.03075477, 0.28266779, 0.00000000, 0.00000000, 0.00000000, -0.94760835, 0.26111262, 0.17797843, -0.04671492
424168340.130785, 0.43083191, -0.00483704, 1.09675598, 0.64842433, 1.14064122, 0.23530946, -163.91783142, 142.35868835, 185.38786316, 0.30281568, -0.17725357, 0.93642074, 0.12801625, 0.17241654, 0.16033521, 0.00000000, 0.00000000, 0.00000000, -0.94738567, 0.26583977, 0.17248538, -0.04514879
424168340.146304, 0.48019409, 0.20709229, 1.10917664, 0.77134839, 1.10897064, -0.06188973, -162.37788391, 142.52978516, 188.21694946, 0.28733274, -0.17039721, 0.94255221, 0.18912295, 0.30313343, 0.25269926, 0.00000000, 0.00000000, 0.00000000, -0.94809981, 0.26904062, 0.16383801, -0.04337046
424168340.162914, 0.51571655, 0.10043335, 1.03044128, 0.65505321, 1.04890251, -0.06294275, -161.69346619, 141.16094971, 187.55128479, 0.27023265, -0.15928590, 0.94952744, 0.22656299, 0.34751832, 0.13595232, 0.00000000, 0.00000000, 0.00000000, -0.94969736, 0.26988633, 0.15369280, -0.04018477
424168340.178022, 0.51571655, 0.10043335, 1.03044128, 0.58030227, 1.08523868, 0.27673732, -161.69346619, 141.16094971, 187.55128479, 0.25425619, -0.14878689, 0.95562351, 0.26901346, 0.07870326, 0.03793730, 0.00000000, 0.00000000, 0.00000000, -0.95130197, 0.26988201, 0.14421453, -0.03728841
424168340.193858, 0.53321838, -0.23510742, 0.98017883, 0.45502078, 1.30400191, 0.43504228, -161.00904846, 142.52978516, 187.55128479, 0.23788649, -0.14041357, 0.96109003, 0.29533190, -0.09469385, 0.01908880, 0.00000000, 0.00000000, 0.00000000, -0.95226322, 0.27155067, 0.13495554, -0.03524185
424168340.209482, 0.25991821, -0.28463745, 0.96290588, 0.20620643, 1.20303668, 0.11767577, -159.98242188, 141.84536743, 187.88410950, 0.21817377, -0.13465157, 0.96657598, 0.04174444, -0.14998588, -0.00367011, 0.00000000, 0.00000000, 0.00000000, -0.95272432, 0.27496247, 0.12452282, -0.03472850
424168340.226332, -0.18910217, -0.24229431, 1.02209473, 0.01724716, 0.85009966, -0.31151341, -158.61360168, 141.50315857, 189.88111877, 0.19769335, -0.13084140, 0.97149259, -0.18859911, -0.14596829, 0.01094453, 0.00000000, 0.00000000, 0.00000000, -0.95341190, 0.27704161, 0.11399064, -0.03549415
424168340.241007, 0.07487488, -0.26744080, 0.91220093, -0.06382052, 0.42213820, -0.31484956, -158.61360168, 142.52978516, 188.21694946, 0.18384594, -0.12966603, 0.97436512, -0.26932567, -0.13519603, -0.01748646, 0.00000000, 0.00000000, 0.00000000, -0.95462212, 0.27546174, 0.10698195, -0.03704459
424168340.257303, 0.21223450, -0.20776367, 1.03149414, 0.17061488, 0.32607185, -0.16270210, -158.78469849, 142.70088196, 187.05203247, 0.17531271, -0.12972268, 0.97592902, -0.02174827, -0.07508078, -0.06717659, 0.00000000, 0.00000000, 0.00000000, -0.95574779, 0.27296645, 0.10271861, -0.03852754
424168340.273509, 0.21223450, -0.20776367, 1.03149414, 0.51733236, 0.41166665, 0.01925519, -158.44248962, 143.04309082, 186.71920776, 0.17082980, -0.12815259, 0.97693098, 0.04140469, -0.07961108, 0.05456319, 0.00000000, 0.00000000, 0.00000000, -0.95645862, 0.27138974, 0.10024171, -0.03855026
424168340.288432, 0.18153381, -0.05136108, 1.12283325, 0.57266619, 0.45694545, 0.21961225, -158.44248962, 143.04309082, 186.71920776, 0.16491902, -0.12204226, 0.97872746, 0.01661480, 0.07068118, 0.14410581, 0.00000000, 0.00000000, 0.00000000, -0.95690484, 0.27147162, 0.09649779, -0.03639309
424168340.304129, 0.13916016, -0.06802368, 1.04327393, 0.52846277, 0.36679025, 0.32588623, -158.10028076, 142.35868835, 187.38487244, 0.15752085, -0.11395475, 0.98091871, -0.01836069, 0.04593107, 0.06235522, 0.00000000, 0.00000000, 0.00000000, -0.95700448, 0.27313327, 0.09181245, -0.03333353
424168340.320330, 0.06056213, -0.18737793, 1.10720825, 0.40272162, 0.59749351, 0.33657349, -156.38923645, 144.41192627, 186.38636780, 0.15112704, -0.10645876, 0.98276508, -0.06309909, -0.04966917, 0.04438033, 0.00000000, 0.00000000, 0.00000000, -0.95671458, 0.27582555, 0.08773077, -0.03034447
424168340.336174, 0.05296326, -0.24409485, 1.14201355, 0.16807076, 1.07618340, 0.33629759, -156.90255737, 141.16094971, 186.21995544, 0.14298812, -0.10068669, 0.98458958, -0.09293929, -0.13741146, 0.13925079, 0.00000000, 0.00000000, 0.00000000, -0.95634564, 0.27874324, 0.08304579, -0.02843626
424168340.351882, 0.05296326, -0.24409485, 1.14201355, -0.38618499, 1.25163698, 0.47310817, -157.58697510, 140.47653198, 187.55128479, 0.12824436, -0.09719335, 0.98696852, -0.07528109, -0.14690150, 0.15504505, 0.00000000, 0.00000000, 0.00000000, -0.95620209, 0.28135710, 0.07547858, -0.02861345
424168340.367327, 0.21788025, -0.24906921, 1.04661560, -0.49696370, 1.50806903, 0.69620730, -156.90255737, 140.81874084, 187.21844482, 0.10861202, -0.10117666, 0.98892200, 0.10926823, -0.14789255, 0.05769360, 0.00000000, 0.00000000, 0.00000000, -0.95586284, 0.28423095, 0.06665708, -0.03310342
424168340.385019, 0.21684265, -0.11674500, 1.19302368, -0.82225125, 1.12613631, 0.74812136, -155.19151306, 141.50315857, 186.21995544, 0.08520113, -0.11000386, 0.99027264, 0.13164152, -0.00674113, 0.20275104, 0.00000000, 0.00000000, 0.00000000, -0.95493519, 0.28850496, 0.05682549, -0.04042944
424168340.399019, 0.11581421, 0.09251404, 1.03274536, -0.47449754, 0.27754480, 0.67822431, -155.19151306, 141.50315857, 186.21995544, 0.06322501, -0.12187675, 0.99052948, 0.08415964, 0.07469657, 0.19571930, 0.00000000, 0.00000000, 0.00000000, -0.95346025, 0.29356140, 0.04825894, -0.04905439
424168340.415329, 0.14155579, -0.10090637, 1.19259644, -0.13623773, -0.12945520, 0.65982852, -155.70481873, 140.98985291, 189.04902649, 0.05232830, -0.13429837, 0.98955834, 0.11669330, 0.05769924, -0.23917687, 0.00000000, 0.00000000, 0.00000000, -0.95170211, 0.29839951, 0.04517360, -0.05639307
424168340.430384, 0.14155579, -0.10090637, 1.19259644, -0.04740666, 0.58907738, 0.46674535, -156.38923645, 139.62101746, 189.71469116, 0.05468842, -0.13628644, 0.98915881, 0.08686736, 0.03538007, 0.20343761, 0.00000000, 0.00000000, 0.00000000, -0.94991460, 0.30371312, 0.04692502, -0.05673297
424168340.446765, 0.04237366, 0.09246826, 1.07788086, 0.05989609, 0.42806107, 0.00078830, -155.19151306, 140.13432312, 190.54678345, 0.04669635, -0.13884985, 0.98921192, -0.00432269, 0.23131812, 0.08866896, 0.00000000, 0.00000000, 0.00000000, -0.94860238, 0.30783027, 0.04375524, -0.05898756
424168340.462193, -0.08624268, 0.05169678, 0.96018982, 0.09159996, 0.05777408, -0.01437388, -155.53372192, 139.44990540, 191.21244812, 0.03793607, -0.13866608, 0.98961234, -0.12417875, 0.19036286, -0.02942252, 0.00000000, 0.00000000, 0.00000000, -0.94837099, 0.30886668, 0.03960912, -0.06020755
424168340.479100, 0.16844177, -0.11126709, 0.79754639, 0.24789343, -0.78467938, 0.17570631, -155.70481873, 140.98985291, 189.71469116, 0.03516725, -0.13737480, 0.98989463, 0.05078550, 0.07002252, -0.13856104, 0.00000000, 0.00000000, 0.00000000, -0.94852225, 0.30863063, 0.03806985, -0.06002799
424168340.493962, 0.18518066, 0.00062561, 0.73918152, 0.67509056, -1.84618396, 0.29046832, -155.70481873, 140.98985291, 189.71469116, 0.04195759, -0.13517238, 0.98993331, 0.15507916, -0.00212621, -0.26843673, 0.00000000, 0.00000000, 0.00000000, -0.94810922, 0.30992833, 0.04104365, -0.05786844
424168340.510015, 0.18518066, 0.00062561, 0.73918152, 0.45938996, -0.58020640, 0.20693268, -156.21813965, 140.47653198, 190.87960815, 0.06662271, -0.12632328, 0.98974937, 0.11855795, 0.12694889, -0.25056785, 0.00000000, 0.00000000, 0.00000000, -0.94705699, 0.31298204, 0.05158058, -0.04964627
424168340.525529, 0.09878540, -0.00445557, 1.35494995, 0.58788163, 0.42458218, 0.09469508, -156.21813965, 140.81874084, 190.21394348, 0.08323244, -0.11853524, 0.98945528, 0.01555296, 0.11407968, 0.36549467, 0.00000000, 0.00000000, 0.00000000, -0.94609847, 0.31563481, 0.05838781, -0.04316506
424168340.541149, 0.04582214, 0.03184509, 1.24568176, 0.68379697, 1.01151199, -0.04348090, -157.24476624, 141.16094971, 191.21244812, 0.08064158, -0.11085498, 0.99055952, -0.03481944, 0.14270008, 0.25512227, 0.00000000, 0.00000000, 0.00000000, -0.94595933, 0.31692378, 0.05597232, -0.03984160
424168340.556815, -0.09060669, -0.04129028, 0.99591064, 0.45992499, 0.93041394, -0.33464989, -153.99377441, 140.98985291, 191.04602051, 0.06748496, -0.10032149, 0.99266380, -0.06130515, 0.09119673, 0.12180766, 0.00000000, 0.00000000, 0.00000000, -0.94644442, 0.31713538, 0.04801927, -0.03690881
424168340.572921, -0.04888916, -0.14297485, 0.92591858, 0.27752562, 0.76509076, -0.42776839, -154.16488647, 141.84536743, 189.88111877, 0.05173981, -0.09178871, 0.99443340, -0.17780793, 0.02985328, -0.09611799, 0.00000000, 0.00000000, 0.00000000, -0.94745475, 0.31550943, 0.03909949, -0.03541921
424168340.588609, -0.04888916, -0.14297485, 0.92591858, 0.39536570, 0.38879276, -0.20353661, -154.16488647, 141.84536743, 189.88111877, 0.03981306, -0.08644445, 0.99546081, 0.04090593, -0.03715174, -0.05316957, 0.00000000, 0.00000000, 0.00000000, -0.94877619, 0.31233660, 0.03246040, -0.03486982
424168340.604438, 0.14997864, -0.05154419, 0.89826965, 0.39756281, 0.35632217, 0.02406432, -154.84930420, 141.16094971, 190.21394348, 0.03138418, -0.08134152, 0.99619204, 0.11859446, 0.02979733, -0.09792239, 0.00000000, 0.00000000, 0.00000000, -0.94963375, 0.31030913, 0.02757475, -0.03381732
424168340.620245, 0.22540283, 0.06846619, 1.13352966, 0.33431487, 0.64409536, 0.26098499, -153.65156555, 140.64764404, 188.05053711, 0.02667088, -0.07471549, 0.99684817, 0.19873196, 0.14318167, 0.13668150, 0.00000000, 0.00000000, 0.00000000, -0.94987669, 0.31009411, 0.02428972, -0.03139949
424168340.636665, 0.02520752, 0.01002502, 1.18345642, 0.12778939, 0.49227760, 0.06425489, -154.84930420, 139.79211426, 189.21545410, 0.01773679, -0.06947580, 0.99742597, 0.19442141, 0.10162607, 0.11417684, 0.00000000, 0.00000000, 0.00000000, -0.94953744, 0.31159529, 0.01926984, -0.03026053
424168340.651658, -0.09690857, 0.16911316, 1.02313232, 0.33862945, -0.02181768, -0.02010820, -154.16488647, 141.50315857, 187.55128479, 0.00831824, -0.06648719, 0.99775261, -0.16653663, 0.18056190, 0.25005013, 0.00000000, 0.00000000, 0.00000000, -0.94924262, 0.31275350, 0.01436120, -0.03028950
424168340.667627, -0.09690857, 0.16911316, 1.02313232, 0.24408963, -0.55475643, -0.02300971, -155.02040100, 140.30543518, 190.71319580, 0.00495495, -0.06269573, 0.99802041, -0.05025829, 0.16868328, -0.14452001, 0.00000000, 0.00000000, 0.00000000, -0.94928603, 0.31283578, 0.01217061, -0.02901176
424168340.683259, 0.00396729, -0.06433105, 0.77992249, 0.05696262, -0.98425853, 0.00860201, -155.87593079, 137.39665222, 189.88111877, 0.01121522, -0.05855021, 0.99822146, -0.00724793, -0.00578085, -0.21829899, 0.00000000, 0.00000000, 0.00000000, -0.94929346, 0.31297390, 0.01449850, -0.02605880
424168340.699274, 0.10354614, -0.20637512, 1.15649414, -0.05821191, 0.11089483, 0.33062186, -155.87593079, 137.39665222, 189.88111877, 0.02564972, -0.05589322, 0.99810725, 0.07789642, -0.15048189, 0.15838692, 0.00000000, 0.00000000, 0.00000000, -0.94919296, 0.31318740, 0.02094562, -0.02253146
424168340.714994, 0.09741211, -0.25068665, 1.07077026, 0.18638426, 0.16266774, 0.61686214, -155.70481873, 139.96322632, 191.04602051, 0.02773280, -0.05973978, 0.99782866, 0.11452489, -0.19924764, 0.39825898, 0.00000000, 0.00000000, 0.00000000, -0.94852593, 0.31498078, 0.02258560, -0.02399076
424168340.730671, -0.05122375, -0.11900330, 1.00680542, -0.02760793, 0.47102265, 0.64887441, -156.21813965, 139.44990540, 192.54377747, 0.02546680, -0.05724654, 0.99803519, -0.03167713, -0.07347551, 0.06608222, 0.00000000, 0.00000000, 0.00000000, -0.94717853, 0.31917148, 0.02121738, -0.02306987
424168340.747023, -0.05122375, -0.11900330, 1.00680542, -0.01492542, 0.34861365, 0.49449442, -155.36260986, 139.62101746, 192.04452515, 0.01823902, -0.05707967, 0.99820304, -0.05844593, -0.08450664, -0.10254261, 0.00000000, 0.00000000, 0.00000000, -0.94550593, 0.32422221, 0.01789187, -0.02404944
424168340.762758, -0.03555298, -0.13243103, 0.97511292, -0.04640585, 0.37260127, 0.18962959, -155.70481873, 138.25218201, 193.04302979, 0.01181577, -0.05788510, 0.99825335, -0.04736875, -0.07454593, -0.02314041, 0.00000000, 0.00000000, 0.00000000, -0.94401801, 0.32856759, 0.01509992, -0.02540333
424168340.778577, -0.03251648, -0.14738464, 1.02767944, -0.08482115, 0.41561745, -0.06377925, -153.82267761, 140.13432312, 191.54527283, 0.00651663, -0.05828678, 0.99827862, -0.03903311, -0.08909786, 0.02940083, 0.00000000, 0.00000000, 0.00000000, -0.94322476, 0.33085700, 0.01272657, -0.02643348
424168340.794175, -0.00410461, -0.06947327, 0.96321106, 0.02821300, 0.27494262, -0.06145644, -154.50709534, 140.13432312, 190.87960815, -0.00065495, -0.05979341, 0.99821055, -0.04130672, -0.04056365, -0.05947460, 0.00000000, 0.00000000, 0.00000000, -0.94316116, 0.33098687, 0.00959514, -0.02833115
424168340.809905, 0.11029053, -0.04307556, 0.95201111, 0.25015338, 0.12619815, 0.05476418, -154.50709534, 140.13432312, 190.87960815, -0.00570616, -0.06056624, 0.99814785, 0.06872495, 0.01669722, -0.07657804, 0.00000000, 0.00000000, 0.00000000, -0.94333258, 0.33045057, 0.00732245, -0.02953721
424168340.825803, 0.11029053, -0.04307556, 0.95201111, 0.18532033, 0.18591421, 0.02715146, -152.79605103, 140.47653198, 190.54678345, -0.00851467, -0.05765623, 0.99830019, 0.10563686, 0.03220457, -0.03582155, 0.00000000, 0.00000000, 0.00000000, -0.94327022, 0.33074368, 0.00552359, -0.02862512
424168340.841708, 0.02003479, -0.01593018, 1.02717590, 0.10095777, 0.32206353, -0.11694100, -152.62495422, 139.62101746, 189.38186646, -0.01088663, -0.05421107, 0.99847013, 0.03092142, 0.03828089, 0.02870575, 0.00000000, 0.00000000, 0.00000000, -0.94313506, 0.33125722, 0.00384806, -0.02738827
424168340.857789, -0.12664795, 0.03630066, 1.18853760, -0.04863198, 0.21355809, -0.24252076, -152.45384216, 139.44990540, 189.88111877, -0.01543041, -0.05150466, 0.99855351, -0.11121754, 0.08780532, 0.18998405, 0.00000000, 0.00000000, 0.00000000, -0.94330654, 0.33083160, 0.00124278, -0.02686420
424168340.873122, -0.09083557, 0.06121826, 0.98551941, -0.00673487, 0.02739114, -0.29873051, -154.16488647, 140.13432312, 188.88261414, -0.01944981, -0.05206175, 0.99845445, -0.11873379, 0.10607786, 0.10065139, 0.00000000, 0.00000000, 0.00000000, -0.94376739, 0.32943943, -0.00060292, -0.02779233
424168340.888514, 0.01934814, 0.02070618, 0.97904968, 0.03026976, -0.08005089, -0.27453303, -152.96716309, 139.62101746, 190.04753113, -0.02082188, -0.05272776, 0.99839181, 0.00452549, 0.10434824, -0.03736277, 0.00000000, 0.00000000, 0.00000000, -0.94444594, 0.32744126, -0.00120092, -0.02833101
424168340.905110, 0.01934814, 0.02070618, 0.97904968, 0.05192392, -0.10293917, -0.18041505, -155.02040100, 138.93659973, 190.38035583, -0.01948776, -0.05255982, 0.99842763, 0.08301011, 0.03409668, -0.00697253, 0.00000000, 0.00000000, 0.00000000, -0.94515025, 0.32543019, -0.00065767, -0.02803145
424168340.920375, 0.06575012, -0.05686951, 0.97462463, 0.03883954, -0.08100111, -0.04051920, -155.02040100, 138.93659973, 190.38035583, -0.01785272, -0.05202579, 0.99848616, 0.08360285, -0.00484371, -0.02386152, 0.00000000, 0.00000000, 0.00000000, -0.94564965, 0.32402132, -0.00001249, -0.02751224
424168340.936314, 0.06343079, -0.06478882, 1.01528931, 0.02041153, -0.03357314, 0.06366526, -156.04702759, 138.93659973, 190.71319580, -0.01618371, -0.05146424, 0.99854368, 0.07961449, -0.01332458, 0.01674561, 0.00000000, 0.00000000, 0.00000000, -0.94585144, 0.32347627, 0.00067053, -0.02697593
424168340.952405, 0.03164673, -0.00675964, 0.99397278, 0.02102699, 0.02057132, 0.13790035, -153.99377441, 138.93659973, 190.71319580, -0.01555827, -0.05120050, 0.99856722, 0.04720500, 0.04444085, -0.00459442, 0.00000000, 0.00000000, 0.00000000, -0.94570932, 0.32390969, 0.00093604, -0.02674929
424168340.968492, -0.01019287, 0.02697754, 0.97004700, 0.04933213, 0.03471164, 0.18498716, -153.99377441, 140.30543518, 192.37736511, -0.01579211, -0.05103855, 0.99857181, 0.02075122, 0.06103306, -0.01677555, 0.00000000, 0.00000000, 0.00000000, -0.94535875, 0.32493498, 0.00082809, -0.02670965
424168340.983855, -0.05369568, -0.00825500, 0.97473145, 0.08549093, 0.00625710, 0.14531725, -154.84930420, 139.10769653, 192.21093750, -0.01651496, -0.05054004, 0.99858546, -0.00788385, 0.06997973, -0.02080228, 0.00000000, 0.00000000, 0.00000000, -0.94486988, 0.32636430, 0.00044530, -0.02659063
424168340.999478, -0.05369568, -0.00825500, 0.97473145, 0.19893520, -0.12794199, 0.06162501, -153.13825989, 137.73886108, 192.54377747, -0.01706908, -0.04946037, 0.99863023, -0.03662660, 0.04120537, -0.02389877, 0.00000000, 0.00000000, 0.00000000, -0.94439687, 0.32776466, 0.00004572, -0.02617036
424168341.016557, -0.01995850, -0.01513672, 0.91830444, 0.13172767, -0.06697504, 0.04564738, -154.84930420, 138.08106995, 192.21093750, -0.01591457, -0.04719282, 0.99875903, -0.00404392, 0.03205610, -0.08045457, 0.00000000, 0.00000000, 0.00000000, -0.94414877, 0.32857663, 0.00024052, -0.02490856
424168341.031197, 0.00880432, -0.02146912, 1.13259888, 0.03348046, 0.04570224, 0.05930593, -154.84930420, 138.08106995, 192.21093750, -0.01391115, -0.04415658, 0.99892777, 0.02271548, 0.02268746, 0.13367112, 0.00000000, 0.00000000, 0.00000000, -0.94401813, 0.32908001, 0.00069971, -0.02314366
424168341.046793, 0.00085449, -0.01492310, 0.99684143, 0.02074789, 0.05980821, 0.06406420, -154.16488647, 139.44990540, 191.54527283, -0.01472544, -0.04367912, 0.99893707, -0.00212027, 0.02326286, 0.00145965, 0.00000000, 0.00000000, 0.00000000, -0.94382023, 0.32965424, 0.00025055, -0.02305202
424168341.063043, 0.00166321, -0.03620911, 0.99291992, 0.01585673, 0.06856841, 0.15610625, -152.96716309, 140.64764404, 191.04602051, -0.01563129, -0.04335409, 0.99893749, 0.01538715, 0.02190023, -0.01312815, 0.00000000, 0.00000000, 0.00000000, -0.94362307, 0.33021847, -0.00021698, -0.02304808
424168341.078418, 0.00166321, -0.03620911, 0.99291992, 0.00514896, 0.07484042, 0.21778453, -154.33598328, 138.59439087, 189.71469116, -0.01684706, -0.04323928, 0.99892271, 0.01851027, 0.00703018, -0.00600277, 0.00000000, 0.00000000, 0.00000000, -0.94325186, 0.33126616, -0.00078408, -0.02319569
424168341.094445, -0.00762939, -0.03599548, 0.98822021, 0.03605228, 0.08853253, 0.19389437, -153.65156555, 139.96322632, 192.04452515, -0.01801770, -0.04318578, 0.99890459, 0.01038830, 0.00719030, -0.01068436, 0.00000000, 0.00000000, 0.00000000, -0.94265843, 0.33293750, -0.00130390, -0.02336690
424168341.110165, -0.01721191, -0.03646851, 0.97706604, 0.27801697, -0.09878623, 0.12811429, -152.96716309, 138.93659973, 190.04753113, -0.01925517, -0.04249774, 0.99891102, 0.00204325, 0.00602924, -0.02184496, 0.00000000, 0.00000000, 0.00000000, -0.94205535, 0.33464491, -0.00195996, -0.02325210
424168341.125688, -0.04504395, 0.01995850, 1.09529114, 0.01497149, 0.19597430, -0.00704672, -152.96716309, 138.93659973, 190.04753113, -0.01917621, -0.03998661, 0.99901617, 0.00370380, 0.01899051, -0.18192330, 0.00000000, 0.00000000, 0.00000000, -0.94162286, 0.33593821, -0.00231300, -0.02205801
424168341.141685, -0.01322937, -0.02374268, 0.95489502, 0.06738650, 0.16421451, -0.00004687, -155.19151306, 138.76548767, 189.21545410, -0.02091036, -0.03801804, 0.99905825, -0.00197782, 0.07138901, 0.10821104, 0.00000000, 0.00000000, 0.00000000, -0.94147801, 0.33637522, -0.00345078, -0.02142353
424168341.157451, -0.01322937, -0.02374268, 0.95489502, 0.06101915, 0.13148373, -0.01346255, -154.33598328, 138.25218201, 190.04753113, -0.02326086, -0.03638460, 0.99906713, 0.01003149, 0.01264193, -0.04417209, 0.00000000, 0.00000000, 0.00000000, -0.94144552, 0.33647272, -0.00483046, -0.02105020
424168341.173323, -0.02595520, -0.01800537, 1.00170898, 0.02623240, 0.09082072, -0.01334057, -154.67819214, 139.27880859, 189.04902649, -0.02535931, -0.03547317, 0.99904883, -0.00059589, 0.01746780, 0.00266016, 0.00000000, 0.00000000, 0.00000000, -0.94141243, 0.33655171, -0.00597035, -0.02097478
424168341.190095, -0.03215027, -0.00642395, 1.08100891, -0.01752626, 0.00467864, -0.01407161, -155.02040100, 139.27880859, 189.38186646, -0.02711333, -0.03257616, 0.99910140, -0.00503694, 0.02615221, 0.08190748, 0.00000000, 0.00000000, 0.00000000, -0.94140167, 0.33662086, -0.00728263, -0.01990602
424168341.204776, -0.02603149, -0.02389526, 1.00166321, -0.04361938, -0.00442005, 0.00179843, -154.67819214, 138.59439087, 191.71170044, -0.02743364, -0.03305738, 0.99907690, 0.00337053, 0.01410596, -0.02234653, 0.00000000, 0.00000000, 0.00000000, -0.94137540, 0.33667610, -0.00735125, -0.02018714
424168341.220673, -0.02316284, -0.00508118, 0.99130249, -0.00458490, 0.00220962, -0.02445261, -154.16488647, 138.08106995, 192.87660217, -0.02746491, -0.03380960, 0.99905086, 0.00622468, 0.02206033, 0.00218512, 0.00000000, 0.00000000, 0.00000000, -0.94130321, 0.33685857, -0.00723531, -0.02054819
424168341.236401, -0.02316284, -0.00508118, 0.99130249, 0.01662532, 0.00324080, -0.02770593, -154.16488647, 138.08106995, 192.87660217, -0.02726176, -0.03248011, 0.99910051, 0.00461772, 0.01712977, -0.00985796, 0.00000000, 0.00000000, 0.00000000, -0.94129423, 0.33692052, -0.00736237, -0.01988814
424168341.252133, -0.01565552, -0.02160645, 0.98139954, 0.02360173, -0.00145169, -0.02538339, -153.99377441, 137.22555542, 191.71170044, -0.02726197, -0.03245860, 0.99910122, 0.01160645, 0.01085215, -0.01770167, 0.00000000, 0.00000000, 0.00000000, -0.94131859, 0.33685296, -0.00736752, -0.01987751
424168341.268056, -0.02459717, -0.01554871, 0.98925781, 0.01537576, -0.00022584, -0.02312103, -153.65156555, 137.90997314, 192.04452515, -0.02717224, -0.03127360, 0.99914145, 0.00257508, 0.01572490, -0.00988363, 0.00000000, 0.00000000, 0.00000000, -0.94132267, 0.33687142, -0.00752456, -0.01930434
424168341.283922, -0.02606201, -0.01528931, 0.99349976, 0.00958072, 0.00805526, -0.01024065, -153.82267761, 139.44990540, 192.54377747, -0.02721453, -0.03106184, 0.99914688, 0.00099993, 0.01310224, -0.00717303, 0.00000000, 0.00000000, 0.00000000, -0.94132141, 0.33687900, -0.00758000, -0.01921178
424168341.300137, -0.01930237, -0.01202393, 0.99449158, 0.00595083, -0.00015340, -0.01972657, -153.65156555, 138.25218201, 191.71170044, -0.02725991, -0.03100965, 0.99914730, 0.00264749, 0.01713941, -0.00039851, 0.00000000, 0.00000000, 0.00000000, -0.94130854, 0.33691525, -0.00760943, -0.01919515
424168341.315357, -0.01930237, -0.01202393, 0.99449158, 0.00135049, 0.00568665, -0.02316897, -153.48046875, 138.42327881, 189.54827881, -0.02685923, -0.03000132, 0.99918890, 0.00865549, 0.01379649, -0.00524666, 0.00000000, 0.00000000, 0.00000000, -0.94130818, 0.33694713, -0.00759005, -0.01865288
424168341.331810, -0.02072144, -0.01419067, 0.99322510, 0.01412807, -0.00489596, -0.02437591, -154.16488647, 137.73886108, 190.54678345, -0.02697445, -0.03011195, 0.99918246, 0.00625301, 0.01592128, -0.00595739, 0.00000000, 0.00000000, 0.00000000, -0.94131529, 0.33692249, -0.00762615, -0.01872422
424168341.346685, -0.02917480, -0.01649475, 1.00201416, 0.02604385, 0.00558172, -0.01825757, -154.16488647, 137.73886108, 190.54678345, -0.02673602, -0.02888073, 0.99922526, -0.00243878, 0.01238598, 0.00278892, 0.00000000, 0.00000000, 0.00000000, -0.94130759, 0.33697572, -0.00772035, -0.01810453
424168341.362743, -0.02442932, -0.02142334, 0.98645020, 0.02468644, -0.00609864, -0.02079449, -154.33598328, 139.27880859, 188.71620178, -0.02680932, -0.02851142, 0.99923390, -0.00068702, 0.00344123, -0.00480334, 0.00000000, 0.00000000, 0.00000000, -0.94131379, 0.33696481, -0.00781731, -0.01794287
424168341.378689, -0.01467896, -0.01110840, 0.98947144, 0.01884266, 0.00707309, 0.02824735, -154.33598328, 139.27880859, 189.04902649, -0.02632456, -0.02747856, 0.99927568, 0.00715952, 0.01009880, -0.00882771, 0.00000000, 0.00000000, 0.00000000, -0.94132039, 0.33697743, -0.00776290, -0.01737475
424168341.394840, -0.01467896, -0.01110840, 0.98947144, 0.01521304, 0.00246582, 0.03511591, -155.19151306, 138.42327881, 189.88111877, -0.02559314, -0.02597027, 0.99933505, 0.00899158, 0.01316815, -0.00961947, 0.00000000, 0.00000000, 0.00000000, -0.94121625, 0.33731216, -0.00766685, -0.01654376
424168341.410183, -0.01997375, -0.01445007, 0.98922729, 0.00948991, 0.00701690, 0.01069046, -154.16488647, 137.73886108, 190.54678345, -0.02551248, -0.02535983, 0.99935281, 0.00553873, 0.01090975, -0.01012549, 0.00000000, 0.00000000, 0.00000000, -0.94107244, 0.33772630, -0.00772471, -0.01624609
424168341.426553, -0.03216553, -0.01660156, 0.98728943, 0.01891537, 0.00213985, -0.01489746, -155.02040100, 138.93659973, 190.38035583, -0.02583850, -0.02447614, 0.99936646, -0.00632703, 0.00787458, -0.01207702, 0.00000000, 0.00000000, 0.00000000, -0.94095671, 0.33805872, -0.00802181, -0.01588799
424168341.441886, -0.02571106, -0.01896667, 0.99621582, 0.02359641, -0.00024155, -0.01838007, -155.02040100, 138.93659973, 190.38035583, -0.02632248, -0.02402013, 0.99936485, -0.00834549, 0.00989049, -0.01080897, 0.00000000, 0.00000000, 0.00000000, -0.94090860, 0.33819143, -0.00832447, -0.01575639
424168341.457576, -0.02033997, -0.01837158, 0.99768066, 0.02352716, -0.00732396, -0.03130173, -154.67819214, 138.25218201, 191.04602051, -0.02631820, -0.02346106, 0.99937826, 0.00082076, 0.00594397, -0.00540549, 0.00000000, 0.00000000, 0.00000000, -0.94090010, 0.33822497, -0.00841646, -0.01549281
424168341.474562, -0.02033997, -0.01837158, 0.99768066, 0.02376898, 0.01145958, -0.01352726, -154.67819214, 138.25218201, 191.04602051, -0.02581051, -0.02272257, 0.99940860, 0.00731685, 0.00917276, 0.00155273, 0.00000000, 0.00000000, 0.00000000, -0.94092533, 0.33817720, -0.00830321, -0.01505883
424168341.489331, -0.01936340, -0.01792908, 1.00369263, 0.01043160, 0.00142373, 0.05134282, -153.30935669, 138.25218201, 189.71469116, -0.02565132, -0.02235753, 0.99942088, 0.00628791, 0.00442845, 0.00427172, 0.00000000, 0.00000000, 0.00000000, -0.94092468, 0.33818812, -0.00828985, -0.01486016
424168341.504751, 0.01683044, -0.02845764, 0.98863220, -0.00271323, -0.00054808, 0.09889196, -154.50709534, 138.42327881, 192.21093750, -0.02397824, -0.02241460, 0.99946117, 0.04080869, -0.00604304, -0.01082897, 0.00000000, 0.00000000, 0.00000000, -0.94081581, 0.33852060, -0.00748767, -0.01460651
424168341.520775, -0.01037598, -0.02709961, 0.98107910, -0.00158645, 0.00553911, 0.14090492, -153.65156555, 138.59439087, 192.37736511, -0.02383289, -0.02239578, 0.99946505, 0.00805530, 0.00544326, -0.01553257, 0.00000000, 0.00000000, 0.00000000, -0.94052223, 0.33933828, -0.00740979, -0.01457947
424168341.536579, -0.05072021, -0.00813293, 0.98747253, 0.00094223, 0.00161041, 0.07336050, -153.65156555, 138.59439087, 192.37736511, -0.02380427, -0.02250487, 0.99946332, -0.00495854, 0.00657469, -0.01644633, 0.00000000, 0.00000000, 0.00000000, -0.94008698, 0.34054093, -0.00735910, -0.01463536
424168341.553137, -0.02482605, -0.01530457, 0.99124146, 0.00104822, 0.00382350, 0.05361263, -154.50709534, 138.08106995, 192.21093750, -0.02518890, -0.02199193, 0.99944079, -0.01753571, 0.00758763, -0.01233446, 0.00000000, 0.00000000, 0.00000000, -0.93974391, 0.34147003, -0.00808303, -0.01463811
424168341.568225, -0.02482605, -0.01530457, 0.99124146, 0.01527616, 0.00355425, 0.02233194, -154.16488647, 138.08106995, 192.54377747, -0.02533107, -0.02188279, 0.99943960, 0.00050502, 0.00657822, -0.00819813, 0.00000000, 0.00000000, 0.00000000, -0.93952256, 0.34207769, -0.00815904, -0.01461638
424168341.584320, -0.02465820, -0.01240540, 0.99676514, 0.00002264, 0.00115981, -0.00114463, -154.50709534, 138.76548767, 192.21093750, -0.02548430, -0.02135732, 0.99944705, 0.00082610, 0.00895192, -0.00268192, 0.00000000, 0.00000000, 0.00000000, -0.93939664, 0.34242878, -0.00831555, -0.01439876
424168341.600363, -0.04866028, 0.00621033, 0.99604797, -0.00701663, -0.00364241, -0.02923139, -153.30935669, 139.96322632, 190.38035583, -0.02616868, -0.02045913, 0.99944818, -0.02249160, 0.02666946, -0.00340019, 0.00000000, 0.00000000, 0.00000000, -0.93927641, 0.34275924, -0.00878596, -0.01409706
424168341.615573, -0.02072144, -0.01347351, 0.99572754, -0.01058127, -0.00476253, -0.02463158, -153.48046875, 138.76548767, 190.21394348, -0.02610135, -0.02067445, 0.99944550, 0.00083279, 0.00317262, -0.00896697, 0.00000000, 0.00000000, 0.00000000, -0.93929500, 0.34270636, -0.00871822, -0.01418619
424168341.631475, -0.02072144, -0.01347351, 0.99572754, 0.00001065, -0.00722542, -0.03620115, -153.82267761, 138.76548767, 190.54678345, -0.02593144, -0.02073558, 0.99944866, -0.00135127, -0.00073354, 0.01623739, 0.00000000, 0.00000000, 0.00000000, -0.93930340, 0.34268563, -0.00862823, -0.01418558
424168341.647053, -0.02288818, -0.01513672, 0.99473572, -0.00238539, -0.00833703, -0.02926148, -153.82267761, 138.76548767, 190.54678345, -0.02569344, -0.02092096, 0.99945092, 0.00280526, 0.00578424, -0.00471521, 0.00000000, 0.00000000, 0.00000000, -0.93933057, 0.34261281, -0.00848575, -0.01423121
424168341.662997, -0.02030945, -0.02029419, 0.98841858, 0.02357989, -0.00381498, -0.03007854, -154.84930420, 138.76548767, 189.88111877, -0.02535531, -0.02115036, 0.99945474, 0.00504586, 0.00085617, -0.01103616, 0.00000000, 0.00000000, 0.00000000, -0.93935652, 0.34254443, -0.00828863, -0.01428042
424168341.678450, -0.02751160, -0.01551819, 0.99949646, 0.02614505, 0.01260661, -0.01464712, -154.67819214, 138.59439087, 189.04902649, -0.02524993, -0.02076014, 0.99946558, -0.00226167, 0.00524195, 0.00003087, 0.00000000, 0.00000000, 0.00000000, -0.93936144, 0.34253887, -0.00830605, -0.01407894
424168341.694985, -0.02619934, -0.01799011, 0.99771118, 0.00481846, -0.00022557, -0.03254223, -154.67819214, 137.22555542, 189.71469116, -0.02528729, -0.02041245, 0.99947178, 0.00326885, 0.00704575, -0.02319922, 0.00000000, 0.00000000, 0.00000000, -0.93935580, 0.34255888, -0.00838286, -0.01392215
424168341.710583, -0.02525330, -0.01795959, 0.98823547, 0.00238459, -0.00367170, -0.02564198, -153.99377441, 138.25218201, 190.71319580, -0.02551663, -0.02023617, 0.99946958, -0.00419224, 0.00522153, 0.00129338, 0.00000000, 0.00000000, 0.00000000, -0.93933619, 0.34261101, -0.00852004, -0.01387910
424168341.726153, -0.02525330, -0.01795959, 0.98823547, 0.01529347, -0.00608346, -0.02671124, -154.33598328, 136.19892883, 191.04602051, -0.02550953, -0.02029610, 0.99946851, 0.00025624, 0.00233650, -0.01123305, 0.00000000, 0.00000000, 0.00000000, -0.93934683, 0.34258108, -0.00850688, -0.01390578
424168341.741924, -0.01849365, -0.01542664, 0.98570251, 0.00962893, 0.00796951, -0.02420813, -155.70481873, 138.25218201, 191.04602051, -0.02525134, -0.02009737, 0.99947912, 0.00675769, 0.00467073, -0.01377658, 0.00000000, 0.00000000, 0.00000000, -0.93935827, 0.34255741, -0.00841997, -0.01376792
424168341.758050, -0.02214050, -0.01611328, 0.98999023, 0.01178928, -0.00370845, -0.02321664, -155.70481873, 138.25218201, 191.04602051, -0.02524446, -0.01996000, 0.99948204, 0.00310396, 0.00384671, -0.00949179, 0.00000000, 0.00000000, 0.00000000, -0.93935499, 0.34256857, -0.00844011, -0.01370229
424168341.774005, -0.02679443, -0.01574707, 0.98751831, 0.00829708, -0.00135502, -0.02321398, -155.36260986, 138.25218201, 192.71018982, -0.02519947, -0.01982407, 0.99948585, 0.00281483, 0.00516037, 0.00298606, 0.00000000, 0.00000000, 0.00000000, -0.93936571, 0.34254196, -0.00844264, -0.01363047
424168341.789596, -0.02510071, -0.01602173, 0.98526001, 0.00956821, 0.00447518, -0.02310346, -156.04702759, 135.85671997, 191.37886047, -0.02518649, -0.01951847, 0.99949223, 0.00080295, 0.00589237, -0.00698427, 0.00000000, 0.00000000, 0.00000000, -0.93938202, 0.34250185, -0.00848947, -0.01348428
424168341.804815, -0.02510071, -0.01602173, 0.98526001, 0.00481979, 0.00217314, -0.02202754, -154.33598328, 138.25218201, 192.71018982, -0.02525509, -0.01943619, 0.99949205, 0.00015438, 0.00341446, -0.01423207, 0.00000000, 0.00000000, 0.00000000, -0.93936865, 0.34253844, -0.00853526, -0.01345771
424168341.821122, -0.02188110, -0.01539612, 0.99649048, 0.00825367, -0.00608106, -0.03260428, -152.62495422, 140.30543518, 191.37886047, -0.02523443, -0.01926839, 0.99949586, 0.00335333, 0.00387227, -0.00300537, 0.00000000, 0.00000000, 0.00000000, -0.93936872, 0.34254099, -0.00855427, -0.01337534
424168341.836686, -0.02201843, -0.02001953, 0.99143982, 0.01771455, -0.00141307, -0.02428031, -153.82267761, 138.08106995, 191.21244812, -0.02510296, -0.01937682, 0.99949706, 0.00308453, -0.00064271, -0.00805724, 0.00000000, 0.00000000, 0.00000000, -0.93936659, 0.34254772, -0.00847383, -0.01340382
424168341.853344, -0.02409363, -0.01556396, 0.99174500, 0.01526231, -0.00722968, -0.02323928, -154.33598328, 138.59439087, 189.38186646, -0.02500319, -0.01926986, 0.99950165, 0.00609755, 0.00117293, -0.01331084, 0.00000000, 0.00000000, 0.00000000, -0.93937150, 0.34253759, -0.00844542, -0.01333637
424168341.868323, -0.02583313, -0.01480103, 0.99424744, 0.01652571, -0.00138511, -0.02080089, -154.33598328, 138.59439087, 189.38186646, -0.02497354, -0.01903313, 0.99950689, -0.00125632, 0.00128716, -0.00677009, 0.00000000, 0.00000000, 0.00000000, -0.93936999, 0.34254557, -0.00847193, -0.01322012
424168341.884379, -0.02583313, -0.01480103, 0.99424744, 0.01539440, 0.00094116, -0.02310159, -153.82267761, 139.10769653, 190.21394348, -0.02496835, -0.01884736, 0.99951059, -0.00086478, 0.00404633, -0.00526312, 0.00000000, 0.00000000, 0.00000000, -0.93936809, 0.34255345, -0.00850120, -0.01313201
424168341.899686, -0.02304077, -0.01829529, 0.99319458, 0.01292778, -0.00965130, -0.03959854, -154.16488647, 138.08106995, 189.54827881, -0.02495372, -0.01875367, 0.99951267, 0.00191295, 0.00045838, -0.00631811, 0.00000000, 0.00000000, 0.00000000, -0.93938481, 0.34250915, -0.00851100, -0.01308508
424168341.916917, -0.02023315, -0.01466370, 0.98997498, 0.01071763, -0.00028576, -0.03713725, -154.33598328, 138.25218201, 189.04902649, -0.02475747, -0.01858859, 0.99952066, 0.00452431, 0.00392490, -0.00954568, 0.00000000, 0.00000000, 0.00000000, -0.93941770, 0.34242476, -0.00844823, -0.01297312
424168341.931947, -0.02261353, -0.01611328, 0.99348450, 0.01771029, -0.00140588, -0.02311650, -152.96716309, 138.93659973, 189.38186646, -0.02456391, -0.01848200, 0.99952739, 0.00665010, 0.00032404, -0.00460858, 0.00000000, 0.00000000, 0.00000000, -0.93944950, 0.34234244, -0.00837667, -0.01288913
424168341.947155, -0.02458191, -0.01579285, 0.98750305, 0.01533129, -0.00374893, -0.02667182, -154.67819214, 137.56776428, 190.71319580, -0.02446825, -0.01829016, 0.99953330, 0.00331957, 0.00240576, -0.00806294, 0.00000000, 0.00000000, 0.00000000, -0.93945665, 0.34232709, -0.00836477, -0.01278246
424168341.963864, -0.02458191, -0.01579285, 0.98750305, 0.01071683, 0.00451885, -0.01494326, -155.36260986, 137.90997314, 190.38035583, -0.02458907, -0.01810898, 0.99953359, -0.00220536, 0.00210251, -0.00926872, 0.00000000, 0.00000000, 0.00000000, -0.93944751, 0.34235243, -0.00845222, -0.01271825
424168341.978978, -0.02368164, -0.01339722, 0.98899841, 0.01653370, -0.00139949, -0.02312876, -155.36260986, 137.90997314, 190.38035583, -0.02462673, -0.01795482, 0.99953544, 0.00094509, 0.00455760, -0.01053705, 0.00000000, 0.00000000, 0.00000000, -0.93943883, 0.34237760, -0.00849596, -0.01265249
424168341.995458, -0.01991272, -0.01617432, 0.99421692, 0.00830347, -0.00376811, -0.03605707, -154.84930420, 139.44990540, 190.54678345, -0.02447267, -0.01775101, 0.99954289, 0.00455996, 0.00157669, -0.00532597, 0.00000000, 0.00000000, 0.00000000, -0.93943189, 0.34240206, -0.00845815, -0.01253054
424168342.010719, -0.01872253, -0.01544189, 0.99096680, 0.01771455, -0.00141307, -0.02428031, -155.53372192, 139.10769653, 192.54377747, -0.02439683, -0.01759489, 0.99954748, 0.00074571, 0.00348051, -0.00780251, 0.00000000, 0.00000000, 0.00000000, -0.93945042, 0.34235458, -0.00844987, -0.01244376
424168342.026795, -0.02333069, -0.01779175, 0.98971558, 0.01183535, -0.00138804, -0.02550509, -155.19151306, 139.10769653, 192.54377747, -0.02435536, -0.01744963, 0.99955106, 0.00270314, 0.00231291, -0.00855375, 0.00000000, 0.00000000, 0.00000000, -0.93944136, 0.34238204, -0.00845490, -0.01236865
424168342.042200, -0.02333069, -0.01779175, 0.98971558, 0.02007704, 0.00095874, -0.01606898, -154.84930420, 138.42327881, 191.21244812, -0.02432299, -0.01735100, 0.99955356, -0.00022840, 0.00081047, -0.00756443, 0.00000000, 0.00000000, 0.00000000, -0.93944373, 0.34237738, -0.00845663, -0.01231671
424168342.058223, -0.02339172, -0.01512146, 0.99423218, 0.01418879, -0.00140082, -0.02548086, -152.79605103, 138.76548767, 190.21394348, -0.02427726, -0.01717444, 0.99955773, 0.00088554, 0.00205298, -0.00532555, 0.00000000, 0.00000000, 0.00000000, -0.93944434, 0.34237873, -0.00846536, -0.01222593
424168342.074111, -0.02285767, -0.01586914, 0.99397278, 0.00951707, -0.00023676, -0.03016563, -154.33598328, 140.98985291, 190.38035583, -0.02424249, -0.01707626, 0.99956024, 0.00138482, 0.00120712, -0.00558748, 0.00000000, 0.00000000, 0.00000000, -0.93945186, 0.34235994, -0.00846607, -0.01217367
424168342.089338, -0.02018738, -0.01539612, 0.99121094, 0.01423699, 0.00211508, -0.02309413, -154.33598328, 140.98985291, 190.38035583, -0.02420565, -0.01707333, 0.99956119, 0.00380465, 0.00019711, -0.00735844, 0.00000000, 0.00000000, 0.00000000, -0.93946644, 0.34232063, -0.00844978, -0.01216563
424168342.105182, -0.02214050, -0.01536560, 0.99148560, 0.01769884, -0.00618919, -0.04181855, -153.82267761, 138.76548767, 190.21394348, -0.02405456, -0.01695876, 0.99956679, 0.00409606, 0.00179152, -0.01159072, 0.00000000, 0.00000000, 0.00000000, -0.93947273, 0.34230745, -0.00839856, -0.01208579
424168342.120947, -0.02214050, -0.01536560, 0.99148560, 0.01891643, 0.00093663, -0.02073724, -153.65156555, 138.93659973, 190.38035583, -0.02396065, -0.01678601, 0.99957198, 0.00108773, 0.00143567, -0.00834577, 0.00000000, 0.00000000, 0.00000000, -0.93949775, 0.34224255, -0.00838484, -0.01198795
424168342.136985, -0.02485657, -0.01481628, 0.98974609, 0.01186465, 0.00096034, -0.02313808, -153.82267761, 138.76548767, 189.21545410, -0.02402203, -0.01661512, 0.99957335, -0.00083453, 0.00179883, -0.00982726, 0.00000000, 0.00000000, 0.00000000, -0.93949967, 0.34223828, -0.00844298, -0.01191812
424168342.152777, -0.02262878, -0.01559448, 0.99198914, 0.00719746, 0.00211748, -0.02898691, -155.36260986, 139.27880859, 188.71620178, -0.02399476, -0.01653482, 0.99957532, 0.00136597, 0.00094034, -0.00758620, 0.00000000, 0.00000000, 0.00000000, -0.93950600, 0.34222237, -0.00844411, -0.01187557
424168342.168916, -0.02357483, -0.01657104, 0.99098206, 0.00825260, -0.00487838, -0.02676477, -154.16488647, 138.76548767, 189.54827881, -0.02397928, -0.01645261, 0.99957705, 0.00135050, 0.00108701, -0.00709965, 0.00000000, 0.00000000, 0.00000000, -0.93950707, 0.34222069, -0.00845093, -0.01183428
424168342.184680, -0.02287292, -0.01609802, 0.98948669, 0.00837830, 0.00570556, -0.01378426, -154.16488647, 138.76548767, 189.54827881, -0.02391419, -0.01641731, 0.99957919, 0.00206361, -0.00019951, -0.00411106, 0.00000000, 0.00000000, 0.00000000, -0.93951885, 0.34218992, -0.00842677, -0.01180627
424168342.200212, -0.02287292, -0.01609802, 0.98948669, 0.01181245, -0.00254865, -0.02436073, -155.02040100, 137.22555542, 190.38035583, -0.02397065, -0.01645190, 0.99957728, 0.00089936, -0.00060742, -0.00760341, 0.00000000, 0.00000000, 0.00000000, -0.93949801, 0.34224571, -0.00844668, -0.01183269
424168342.216305, -0.02259827, -0.01683044, 0.99098206, 0.01657125, 0.00093477, -0.02308961, -155.36260986, 138.59439087, 191.71170044, -0.02396126, -0.01638453, 0.99957860, 0.00136299, -0.00044592, -0.00859656, 0.00000000, 0.00000000, 0.00000000, -0.93950219, 0.34223522, -0.00845393, -0.01179933
424168342.231797, -0.02305603, -0.01780701, 0.99296570, 0.01532436, -0.00493803, -0.03018347, -155.87593079, 138.76548767, 190.54678345, -0.02387486, -0.01634809, 0.99958128, 0.00081883, -0.00145892, -0.00661558, 0.00000000, 0.00000000, 0.00000000, -0.93952674, 0.34216975, -0.00842039, -0.01176682
424168342.247485, -0.02058411, -0.01858521, 0.99095154, 0.00600969, 0.00094223, -0.03134674, -154.50709534, 137.73886108, 190.87960815, -0.02374891, -0.01625769, 0.99958575, 0.00218824, -0.00179346, -0.00813067, 0.00000000, 0.00000000, 0.00000000, -0.93954866, 0.34211284, -0.00837738, -0.01170227
424168342.263626, -0.02365112, -0.01460266, 0.98898315, 0.00837617, -0.00029481, -0.04065369, -155.19151306, 137.05444336, 190.87960815, -0.02360772, -0.01633595, 0.99958783, 0.00229119, -0.00223400, -0.00740032, 0.00000000, 0.00000000, 0.00000000, -0.93957429, 0.34204395, -0.00829851, -0.01171427
424168342.279672, -0.02139282, -0.01635742, 0.99119568, 0.01070085, 0.00454735, -0.01028752, -155.19151306, 137.05444336, 190.87960815, -0.02353535, -0.01628225, 0.99959040, 0.00334797, 0.00062673, -0.00686885, 0.00000000, 0.00000000, 0.00000000, -0.93959971, 0.34197602, -0.00827453, -0.01167605
424168342.295190, -0.02139282, -0.01635742, 0.99119568, 0.01533635, -0.00495934, -0.03367567, -152.96716309, 138.93659973, 192.71018982, -0.02354558, -0.01620143, 0.99959147, 0.00215276, -0.00015600, -0.00839580, 0.00000000, 0.00000000, 0.00000000, -0.93959120, 0.34200017, -0.00829286, -0.01164003
424168342.310612, -0.02499390, -0.01896667, 0.99197388, 0.01072482, 0.00450447, -0.01727140, -155.19151306, 138.08106995, 192.54377747, -0.02354323, -0.01619914, 0.99959159, -0.00145066, -0.00276753, -0.00761769, 0.00000000, 0.00000000, 0.00000000, -0.93961093, 0.34194602, -0.00829282, -0.01163808
424168342.327278, -0.02114868, -0.01614380, 0.99246216, 0.01539440, 0.00094116, -0.02310159, -154.16488647, 138.42327881, 192.54377747, -0.02352672, -0.01610141, 0.99959356, 0.00237804, -0.00004239, -0.00713138, 0.00000000, 0.00000000, 0.00000000, -0.93960995, 0.34195016, -0.00830172, -0.01158936
424168342.342834, -0.01971436, -0.01565552, 0.99072266, 0.01182843, -0.00257714, -0.02901674, -155.36260986, 139.62101746, 192.71018982, -0.02350229, -0.01601254, 0.99959552, 0.00307077, -0.00036014, -0.00939168, 0.00000000, 0.00000000, 0.00000000, -0.93960696, 0.34195984, -0.00830532, -0.01154350
424168342.358378, -0.02185059, -0.01731873, 0.99121094, 0.01649589, -0.00373402, -0.02316817, -152.62495422, 138.59439087, 191.04602051, -0.02340171, -0.01597703, 0.99959844, 0.00226829, -0.00065505, -0.00464913, 0.00000000, 0.00000000, 0.00000000, -0.93962524, 0.34191174, -0.00826471, -0.01150918
424168342.374298, -0.02185059, -0.01731873, 0.99121094, 0.01288091, -0.01076823, -0.03147057, -153.48046875, 139.10769653, 192.21093750, -0.02338942, -0.01591899, 0.99959970, 0.00153883, -0.00139974, -0.00838874, 0.00000000, 0.00000000, 0.00000000, -0.93962942, 0.34190114, -0.00826899, -0.01147971
424168342.390739, -0.02455139, -0.01679993, 0.99273682, 0.01297119, -0.00492525, -0.03020797, -153.48046875, 139.10769653, 192.21093750, -0.02333916, -0.01590692, 0.99960107, -0.00121223, -0.00089301, -0.00686423, 0.00000000, 0.00000000, 0.00000000, -0.93964210, 0.34186730, -0.00824785, -0.01146514
424168342.405564, -0.02091980, -0.01489258, 0.99197388, 0.01650414, -0.00374813, -0.02549604, -152.62495422, 140.30543518, 190.38035583, -0.02330216, -0.01584398, 0.99960291, 0.00238236, 0.00095140, -0.00762903, 0.00000000, 0.00000000, 0.00000000, -0.93963284, 0.34189410, -0.00824089, -0.01142947
424168342.420995, -0.02311707, -0.01631165, 0.98922729, 0.01993562, -0.00959670, -0.02439376, -154.33598328, 138.93659973, 190.38035583, -0.02337192, -0.01579043, 0.99960214, -0.00172878, 0.00050113, -0.00985604, 0.00000000, 0.00000000, 0.00000000, -0.93963322, 0.34189249, -0.00828285, -0.01141622
424168342.437480, -0.02268982, -0.01315308, 0.99101257, 0.00946993, -0.00135395, -0.02203766, -153.13825989, 139.79211426, 189.21545410, -0.02329738, -0.01571136, 0.99960512, -0.00032323, 0.00058990, -0.00662416, 0.00000000, 0.00000000, 0.00000000, -0.93964101, 0.34187327, -0.00826157, -0.01136614
424168342.452833, -0.02268982, -0.01315308, 0.99101257, 0.00828643, -0.00253666, -0.02556155, -154.16488647, 140.13432312, 190.87960815, -0.02324108, -0.01563821, 0.99960756, 0.00055126, 0.00248513, -0.00859500, 0.00000000, 0.00000000, 0.00000000, -0.93964436, 0.34186586, -0.00824771, -0.01132206
424168342.469265, -0.02232361, -0.01780701, 0.99121094, 0.01185266, 0.00098191, -0.01964614, -155.19151306, 138.76548767, 189.54827881, -0.02323811, -0.01569650, 0.99960673, 0.00091450, -0.00211050, -0.00839579, 0.00000000, 0.00000000, 0.00000000, -0.93965542, 0.34183483, -0.00823672, -0.01134868
424168342.485758, -0.02377319, -0.01800537, 0.99145508, 0.01188489, 0.00092465, -0.02895788, -154.67819214, 137.56776428, 191.71170044, -0.02326578, -0.01565131, 0.99960679, -0.00050741, -0.00235406, -0.00815171, 0.00000000, 0.00000000, 0.00000000, -0.93966030, 0.34182147, -0.00825761, -0.01133206
424168342.500846, -0.02165222, -0.01489258, 0.99247742, 0.01411023, -0.00726617, -0.03023513, -154.67819214, 137.56776428, 191.71170044, -0.02331677, -0.01565768, 0.99960548, -0.00147877, -0.00112698, -0.00860819, 0.00000000, 0.00000000, 0.00000000, -0.93967006, 0.34179369, -0.00828082, -0.01134353
424168342.515948, -0.02113342, -0.01710510, 0.99070740, 0.01413606, -0.00491007, -0.02670378, -154.67819214, 137.90997314, 190.38035583, -0.02322206, -0.01559706, 0.99960864, -0.00056639, -0.00240831, -0.00990834, 0.00000000, 0.00000000, 0.00000000, -0.93968531, 0.34175408, -0.00824715, -0.01129849
424168342.532328, -0.02113342, -0.01710510, 0.99070740, 0.01299569, -0.00136594, -0.02083737, -153.13825989, 137.39665222, 191.21244812, -0.02317146, -0.01556641, 0.99961030, 0.00203804, -0.00153870, -0.00890291, 0.00000000, 0.00000000, 0.00000000, -0.93968545, 0.34175489, -0.00822860, -0.01127544
424168342.548246, -0.02259827, -0.01660156, 0.99446106, 0.01652971, -0.00139230, -0.02196469, -154.50709534, 137.39665222, 192.87660217, -0.02327170, -0.01565753, 0.99960655, 0.00067344, -0.00094403, -0.00514550, 0.00000000, 0.00000000, 0.00000000, -0.93968629, 0.34174985, -0.00826020, -0.01133536
424168342.563557, -0.02352905, -0.01901245, 0.99070740, 0.01187530, -0.00145941, -0.03714471, -155.87593079, 139.79211426, 192.21093750, -0.02324890, -0.01564587, 0.99960726, -0.00028016, -0.00336658, -0.00889987, 0.00000000, 0.00000000, 0.00000000, -0.93968307, 0.34175922, -0.00825136, -0.01132607
424168342.579195, -0.02311707, -0.01583862, 0.99023438, 0.02124563, -0.00263520, -0.03008333, -154.16488647, 137.73886108, 192.54377747, -0.02322022, -0.01568005, 0.99960738, 0.00210206, -0.00191334, -0.00940354, 0.00000000, 0.00000000, 0.00000000, -0.93970377, 0.34170239, -0.00823273, -0.01133673
424168342.595034, -0.02311707, -0.01631165, 0.98922729, 0.01180553, -0.00373695, -0.02787238, -154.16488647, 137.73886108, 192.54377747, -0.02318707, -0.01558619, 0.99960965, 0.00211468, -0.00298375, -0.00842922, 0.00000000, 0.00000000, 0.00000000, -0.93971353, 0.34167720, -0.00823349, -0.01128673
424168342.610937, -0.02311707, -0.01631165, 0.98922729, 0.00950509, -0.00021518, -0.02667369, -154.84930420, 138.76548767, 189.54827881, -0.02322331, -0.01554993, 0.99960935, -0.00088558, 0.00044373, -0.00685729, 0.00000000, 0.00000000, 0.00000000, -0.93972353, 0.34164949, -0.00825705, -0.01127563
424168342.626891, -0.02227783, -0.01953125, 0.99244690, 0.01412115, -0.00608426, -0.02788756, -152.45384216, 139.10769653, 190.87960815, -0.02318943, -0.01561078, 0.99960917, 0.00091160, -0.00392047, -0.00716230, 0.00000000, 0.00000000, 0.00000000, -0.93974109, 0.34160105, -0.00823131, -0.01129802
424168342.642742, -0.02256775, -0.01803589, 0.98921204, 0.01536511, -0.00140721, -0.02546861, -154.16488647, 140.13432312, 189.21545410, -0.02311462, -0.01559385, 0.99961120, 0.00054687, -0.00244204, -0.01039916, 0.00000000, 0.00000000, 0.00000000, -0.93976031, 0.34154963, -0.00819966, -0.01127683
424168342.658242, -0.02409363, -0.01606750, 0.99024963, 0.01652465, -0.00018216, -0.01496111, -154.33598328, 139.27880859, 188.71620178, -0.02311400, -0.01559524, 0.99961120, -0.00113222, -0.00341721, -0.00539427, 0.00000000, 0.00000000, 0.00000000, -0.93977785, 0.34150136, -0.00819971, -0.01127696
424168342.673578, -0.02403259, -0.01779175, 0.99298096, 0.01771561, -0.00261629, -0.03011982, -153.99377441, 139.27880859, 189.71469116, -0.02313859, -0.01542816, 0.99961323, -0.00199263, 0.00158844, -0.00660174, 0.00000000, 0.00000000, 0.00000000, -0.93977374, 0.34151418, -0.00823965, -0.01120274
424168342.690219, -0.02403259, -0.01779175, 0.99298096, 0.00953332, 0.00333641, -0.01846742, -154.50709534, 139.10769653, 189.54827881, -0.02315013, -0.01536440, 0.99961394, 0.00006358, -0.00192381, -0.01038663, 0.00000000, 0.00000000, 0.00000000, -0.93978206, 0.34149180, -0.00825622, -0.01117454
424168342.705580, -0.02188110, -0.01586914, 0.99148560, 0.00947526, -0.00256436, -0.02904124, -154.50709534, 139.10769653, 189.54827881, -0.02314461, -0.01529741, 0.99961507, 0.00126351, -0.00057173, -0.00812949, 0.00000000, 0.00000000, 0.00000000, -0.93977780, 0.34150435, -0.00826492, -0.01114222
424168342.721583, -0.02461243, -0.01434326, 0.99101257, 0.01533182, -0.00014727, -0.01031735, -154.50709534, 137.73886108, 190.54678345, -0.02312709, -0.01531295, 0.99961525, -0.00148533, 0.00096969, -0.00860268, 0.00000000, 0.00000000, 0.00000000, -0.93978377, 0.34148806, -0.00825423, -0.01114639
424168342.737329, -0.02189636, -0.01538086, 0.99397278, 0.00838230, 0.00569837, -0.01494806, -155.19151306, 138.08106995, 189.88111877, -0.02320195, -0.01533509, 0.99961317, 0.00182439, -0.00199889, -0.00890578, 0.00000000, 0.00000000, 0.00000000, -0.93975773, 0.34155818, -0.00828480, -0.01117020
424168342.753302, -0.02189636, -0.01536560, 0.99172974, 0.01297625, -0.00613486, -0.03721155, -155.19151306, 137.05444336, 191.87811279, -0.02325362, -0.01528747, 0.99961269, 0.00085372, 0.00041015, -0.00563993, 0.00000000, 0.00000000, 0.00000000, -0.93973099, 0.34163142, -0.00831635, -0.01115730
424168342.768940, -0.02189636, -0.01536560, 0.99172974, 0.00944037, -0.00370286, -0.02440494, -156.04702759, 138.93659973, 192.04452515, -0.02316176, -0.01530012, 0.99961466, -0.00010789, -0.00446002, -0.00941079, 0.00000000, 0.00000000, 0.00000000, -0.93975545, 0.34156553, -0.00827179, -0.01114696
424168342.784583, -0.02381897, -0.01655579, 0.99221802, 0.01060710, -0.00609358, -0.03257978, -155.87593079, 136.71224976, 193.54226685, -0.02310601, -0.01535334, 0.99961513, -0.00071296, -0.00120245, -0.00739710, 0.00000000, 0.00000000, 0.00000000, -0.93977101, 0.34152307, -0.00823700, -0.01116208
424168342.800808, -0.02511597, -0.01432800, 0.99150085, 0.01412807, -0.00489596, -0.02437591, -155.87593079, 136.71224976, 193.54226685, -0.02309936, -0.01536258, 0.99961513, -0.00201661, 0.00103457, -0.00811428, 0.00000000, 0.00000000, 0.00000000, -0.93978855, 0.34147482, -0.00823287, -0.01116486
424168342.816332, -0.02139282, -0.01614380, 0.99472046, 0.01424525, 0.00210097, -0.02542200, -153.82267761, 137.73886108, 192.54377747, -0.02305687, -0.01534700, 0.99961632, -0.00045692, -0.00319242, -0.00442287, 0.00000000, 0.00000000, 0.00000000, -0.93979911, 0.34144665, -0.00821590, -0.01115003
424168342.832130, -0.02316284, -0.01387024, 0.99174500, 0.00490608, 0.00802357, -0.01960113, -153.99377441, 139.27880859, 191.71170044, -0.02306494, -0.01527479, 0.99961728, -0.00148646, -0.00198290, -0.00887936, 0.00000000, 0.00000000, 0.00000000, -0.93979800, 0.34145036, -0.00823197, -0.01111750
424168342.849239, -0.02429199, -0.01727295, 0.99122620, 0.02007278, -0.00263573, -0.03125939, -154.33598328, 138.59439087, 191.71170044, -0.02310152, -0.01522871, 0.99961716, -0.00033598, 0.00181623, -0.00512555, 0.00000000, 0.00000000, 0.00000000, -0.93980163, 0.34144028, -0.00825715, -0.01110200
424168342.863675, -0.02429199, -0.01727295, 0.99122620, 0.01416003, -0.00495295, -0.03368792, -154.33598328, 140.30543518, 192.71018982, -0.02312810, -0.01516293, 0.99961752, -0.00116389, -0.00211001, -0.00839132, 0.00000000, 0.00000000, 0.00000000, -0.93980872, 0.34142105, -0.00828111, -0.01107546
424168342.879073, -0.02313232, -0.01512146, 0.99348450, 0.01762959, -0.00486506, -0.01619175, -153.48046875, 139.44990540, 191.54527283, -0.02306514, -0.01506608, 0.99962044, -0.00006718, -0.00005538, -0.00613594, 0.00000000, 0.00000000, 0.00000000, -0.93983534, 0.34134990, -0.00826888, -0.01101855
424168342.896093, -0.02267456, -0.01388550, 0.99124146, 0.00824461, -0.00486426, -0.02443690, -154.33598328, 139.27880859, 191.37886047, -0.02308149, -0.01500587, 0.99962097, -0.00046282, -0.00255700, -0.00689940, 0.00000000, 0.00000000, 0.00000000, -0.93982680, 0.34137381, -0.00828657, -0.01099325
424168342.911054, -0.02409363, -0.01531982, 0.99174500, 0.01180952, -0.00374414, -0.02903645, -154.33598328, 139.27880859, 191.37886047, -0.02293380, -0.01500429, 0.99962437, 0.00279220, -0.00260435, -0.00966467, 0.00000000, 0.00000000, 0.00000000, -0.93984006, 0.34133980, -0.00821782, -0.01096699
424168342.927242, -0.02282715, -0.01708984, 0.99246216, 0.01767194, -0.00734234, -0.03951039, -153.30935669, 138.93659973, 190.04753113, -0.02289970, -0.01501191, 0.99962503, 0.00008781, -0.00328338, -0.00917705, 0.00000000, 0.00000000, 0.00000000, -0.93985363, 0.34130291, -0.00820092, -0.01096442
424168342.943040, -0.02282715, -0.01708984, 0.99246216, 0.01291074, -0.00841958, -0.02910329, -153.65156555, 139.96322632, 189.04902649, -0.02284828, -0.01496833, 0.99962687, 0.00002114, -0.00212152, -0.00716472, 0.00000000, 0.00000000, 0.00000000, -0.93987895, 0.34123452, -0.00818498, -0.01093456
424168342.958654, -0.02359009, -0.01681519, 0.98872375, 0.01657951, 0.00092065, -0.02541748, -153.48046875, 141.16094971, 189.88111877, -0.02286701, -0.01492004, 0.99962717, -0.00072307, -0.00189515, -0.01090342, 0.00000000, 0.00000000, 0.00000000, -0.93990061, 0.34117507, -0.00820272, -0.01091454
424168342.974322, -0.02433777, -0.01533508, 0.99299622, 0.01884799, -0.00254385, -0.01730416, -153.30935669, 138.59439087, 188.05053711, -0.02291971, -0.01488501, 0.99962652, -0.00141805, -0.00045007, -0.00663028, 0.00000000, 0.00000000, 0.00000000, -0.93990316, 0.34116756, -0.00823355, -0.01090700
424168342.990802, -0.02304077, -0.01803589, 0.99420166, 0.00721956, 0.00808216, -0.00793702, -154.50709534, 139.10769653, 190.54678345, -0.02289949, -0.01476412, 0.99962872, 0.00072847, -0.00037260, -0.01038619, 0.00000000, 0.00000000, 0.00000000, -0.93989083, 0.34120318, -0.00824426, -0.01084703
424168343.006610, -0.02090454, -0.01612854, 0.98997498, 0.01646073, -0.00847444, -0.03488661, -154.50709534, 139.10769653, 190.54678345, -0.02297677, -0.01473479, 0.99962741, -0.00184928, -0.00154634, -0.00963717, 0.00000000, 0.00000000, 0.00000000, -0.93987459, 0.34124692, -0.00828508, -0.01084682
424168343.021246, -0.02090454, -0.01612854, 0.98997498, 0.01177330, -0.00367969, -0.01856090, -154.50709534, 138.08106995, 189.21545410, -0.02285769, -0.01465289, 0.99963135, 0.00195315, -0.00147565, -0.00965637, 0.00000000, 0.00000000, 0.00000000, -0.93988909, 0.34120987, -0.00824351, -0.01078767
424168343.037344, -0.02061462, -0.01834106, 0.98994446, 0.01416296, -0.00375692, -0.02901221, -154.50709534, 137.73886108, 190.54678345, -0.02279340, -0.01466707, 0.99963260, 0.00217878, -0.00367399, -0.00968814, 0.00000000, 0.00000000, 0.00000000, -0.93989872, 0.34118427, -0.00821116, -0.01078314
424168343.053538, -0.02207947, -0.01831055, 0.98921204, 0.01193229, 0.00564377, -0.02073138, -156.73144531, 137.56776428, 192.04452515, -0.02268687, -0.01471539, 0.99963433, 0.00060740, -0.00359516, -0.01042228, 0.00000000, 0.00000000, 0.00000000, -0.93992433, 0.34111495, -0.00815364, -0.01078706
424168343.069087, -0.02239990, -0.01513672, 0.99273682, 0.01532037, -0.00493084, -0.02901967, -154.84930420, 138.42327881, 189.88111877, -0.02271489, -0.01467385, 0.99963427, -0.00087520, -0.00140892, -0.00764515, 0.00000000, 0.00000000, 0.00000000, -0.93993348, 0.34108972, -0.00817419, -0.01077210
424168343.084930, -0.02340698, -0.01510620, 0.98973083, 0.01187690, 0.00093903, -0.02662975, -155.19151306, 136.71224976, 193.20944214, -0.02268293, -0.01458677, 0.99963629, 0.00029829, -0.00174013, -0.00941717, 0.00000000, 0.00000000, 0.00000000, -0.93994846, 0.34104990, -0.00817447, -0.01072536
424168343.101239, -0.02340698, -0.01510620, 0.98973083, 0.02238174, -0.00256995, -0.01843174, -154.50709534, 138.76548767, 191.87811279, -0.02272860, -0.01455526, 0.99963570, -0.00067839, -0.00055094, -0.00990488, 0.00000000, 0.00000000, 0.00000000, -0.93994801, 0.34105071, -0.00820130, -0.01071835
424168343.117241, -0.02305603, -0.01754761, 0.99171448, 0.01417787, -0.00258273, -0.02782844, -154.50709534, 138.76548767, 191.87811279, -0.02275876, -0.01446606, 0.99963629, -0.00029728, -0.00308155, -0.00792184, 0.00000000, 0.00000000, 0.00000000, -0.93996052, 0.34101669, -0.00823108, -0.01068126
424168343.132329, -0.02044678, -0.01490784, 0.99197388, 0.01304123, 0.00095394, -0.02312609, -153.65156555, 137.22555542, 192.04452515, -0.02265391, -0.01437661, 0.99963999, 0.00220713, -0.00053123, -0.00766612, 0.00000000, 0.00000000, 0.00000000, -0.93997597, 0.34097680, -0.00819750, -0.01062097
424168343.148041, -0.02401733, -0.01826477, 0.99098206, 0.01655021, 0.00217367, -0.01143029, -153.48046875, 138.42327881, 192.21093750, -0.02266099, -0.01444347, 0.99963886, 0.00154283, -0.00339406, -0.01018269, 0.00000000, 0.00000000, 0.00000000, -0.93998911, 0.34093974, -0.00818985, -0.01065329
424168343.163867, -0.02215576, -0.01489258, 0.99298096, 0.01413712, -0.00611275, -0.03254330, -153.30935669, 138.93659973, 191.04602051, -0.02265513, -0.01449321, 0.99963826, 0.00127757, -0.00238301, -0.00592490, 0.00000000, 0.00000000, 0.00000000, -0.93998370, 0.34095423, -0.00817845, -0.01067580
424168343.179683, -0.02215576, -0.01489258, 0.99298096, 0.01417947, -0.00018376, -0.01731348, -153.82267761, 139.10769653, 188.88261414, -0.02262204, -0.01441150, 0.99964023, 0.00046628, -0.00048108, -0.00665925, 0.00000000, 0.00000000, 0.00000000, -0.93999546, 0.34092322, -0.00817717, -0.01063147
424168343.195591, -0.02116394, -0.01612854, 0.98971558, 0.01292299, -0.00483950, -0.01624049, -153.13825989, 139.79211426, 190.21394348, -0.02261291, -0.01445277, 0.99963981, 0.00144897, -0.00167577, -0.00992425, 0.00000000, 0.00000000, 0.00000000, -0.94000047, 0.34090913, -0.00816601, -0.01064920
424168343.211542, -0.02236938, -0.01634216, 0.99272156, 0.01768579, -0.00496493, -0.03248710, -153.13825989, 139.79211426, 190.21394348, -0.02261744, -0.01442077, 0.99964017, 0.00024806, -0.00192139, -0.00691862, 0.00000000, 0.00000000, 0.00000000, -0.93998473, 0.34095279, -0.00817309, -0.01063530
424168343.227952, -0.02114868, -0.01588440, 0.99171448, 0.01882216, -0.00489968, -0.02083551, -154.84930420, 138.76548767, 190.87960815, -0.02265146, -0.01431954, 0.99964088, -0.00386831, -0.00266349, -0.00888769, 0.00000000, 0.00000000, 0.00000000, -0.93999410, 0.34092745, -0.00820663, -0.01059330
424168343.242803, -0.02264404, -0.01512146, 0.99223328, 0.01301993, -0.00140881, -0.02782098, -155.70481873, 139.62101746, 188.05053711, -0.02256265, -0.01430410, 0.99964309, -0.00125632, -0.00226694, -0.00667740, 0.00000000, 0.00000000, 0.00000000, -0.94002076, 0.34085558, -0.00816832, -0.01057027
424168343.258925, -0.02264404, -0.01512146, 0.99223328, 0.01180420, -0.00253426, -0.02203286, -153.30935669, 139.62101746, 189.71469116, -0.02252238, -0.01429632, 0.99964410, 0.00163310, -0.00184747, -0.00718196, 0.00000000, 0.00000000, 0.00000000, -0.94002721, 0.34083854, -0.00815091, -0.01055959
424168343.274462, -0.02212524, -0.01612854, 0.99273682, 0.01533288, -0.00135022, -0.01615687, -154.33598328, 138.93659973, 189.71469116, -0.02251133, -0.01422810, 0.99964535, 0.00038608, -0.00190044, -0.00690852, 0.00000000, 0.00000000, 0.00000000, -0.94002322, 0.34085042, -0.00815720, -0.01052574
424168343.290998, -0.02145386, -0.01368713, 0.99273682, 0.01529107, -0.00367756, -0.01503221, -153.99377441, 138.25218201, 190.38035583, -0.02254483, -0.01417646, 0.99964529, 0.00109097, 0.00048933, -0.00690850, 0.00000000, 0.00000000, 0.00000000, -0.94001569, 0.34087119, -0.00818152, -0.01050735
424168343.306974, -0.02110291, -0.01759338, 0.99220276, 0.01429904, 0.00440673, -0.03003833, -155.53372192, 137.73886108, 190.21394348, -0.02257325, -0.01412712, 0.99964535, -0.00071166, -0.00464119, -0.00844970, 0.00000000, 0.00000000, 0.00000000, -0.93999579, 0.34092609, -0.00820268, -0.01048948
424168343.321557, -0.02203369, -0.01979065, 0.98945618, 0.02004295, -0.00498464, -0.03362694, -155.53372192, 137.73886108, 190.21394348, -0.02252440, -0.01408514, 0.99964708, 0.00082640, 0.00064215, -0.00614731, 0.00000000, 0.00000000, 0.00000000, -0.94002125, 0.34085712, -0.00818764, -0.01046081
424168343.337723, -0.02203369, -0.01979065, 0.98945618, 0.01891137, 0.00214704, -0.01373366, -156.38923645, 139.96322632, 192.04452515, -0.02255621, -0.01408975, 0.99964631, -0.00057611, -0.00124533, -0.01066313, 0.00000000, 0.00000000, 0.00000000, -0.94002317, 0.34085127, -0.00820188, -0.01046835
424168343.353514, -0.02291870, -0.01461792, 0.99023438, 0.01887782, -0.00019468, -0.01493661, -155.19151306, 138.08106995, 192.21093750, -0.02257133, -0.01401855, 0.99964696, -0.00034738, -0.00059937, -0.00941257, 0.00000000, 0.00000000, 0.00000000, -0.94001897, 0.34086333, -0.00822098, -0.01043756
424168343.369287, -0.02189636, -0.01538086, 0.99247742, 0.00486852, 0.00568904, -0.01964055, -153.65156555, 138.59439087, 192.37736511, -0.02258905, -0.01395591, 0.99964744, 0.00069269, -0.00142495, -0.00717000, 0.00000000, 0.00000000, 0.00000000, -0.94000548, 0.34090088, -0.00823958, -0.01041146
424168343.385478, -0.02476501, -0.01824951, 0.99046326, 0.01301993, -0.00140881, -0.02782098, -155.19151306, 139.10769653, 192.54377747, -0.02261343, -0.01396803, 0.99964672, -0.00025950, -0.00139757, -0.00716928, 0.00000000, 0.00000000, 0.00000000, -0.94001036, 0.34088688, -0.00824913, -0.01042120
424168343.400703, -0.02041626, -0.01663208, 0.98970032, 0.01999315, -0.00729786, -0.03017415, -153.30935669, 139.27880859, 191.71170044, -0.02268261, -0.01411473, 0.99964309, -0.00255542, -0.00460781, -0.00942396, 0.00000000, 0.00000000, 0.00000000, -0.94003044, 0.34082886, -0.00825729, -0.01050145
424168343.418591, -0.02456665, -0.01652527, 0.98799133, 0.01414112, -0.00611994, -0.03370763, -152.96716309, 138.59439087, 191.37886047, -0.02265755, -0.01415126, 0.99964315, -0.00158867, -0.00486119, -0.00591449, 0.00000000, 0.00000000, 0.00000000, -0.94003056, 0.34082857, -0.00823929, -0.01051436
424168343.432717, -0.02456665, -0.01652527, 0.98799133, 0.01068167, -0.00022158, -0.02666144, -152.96716309, 138.59439087, 191.37886047, -0.02263967, -0.01409614, 0.99964428, -0.00192698, -0.00242912, -0.01165298, 0.00000000, 0.00000000, 0.00000000, -0.94005068, 0.34077394, -0.00824089, -0.01048491
424168343.448228, -0.02159119, -0.01710510, 0.99395752, 0.00719053, 0.00092864, -0.03249829, -153.99377441, 139.96322632, 192.04452515, -0.02263426, -0.01417367, 0.99964333, 0.00104307, -0.00293143, -0.00568582, 0.00000000, 0.00000000, 0.00000000, -0.94006415, 0.34073607, -0.00822555, -0.01052011
424168343.464860, -0.02291870, -0.01412964, 0.99174500, 0.01074612, 0.00326557, -0.02893072, -153.65156555, 140.64764404, 191.37886047, -0.02264092, -0.01421333, 0.99964261, -0.00047615, -0.00209832, -0.01067473, 0.00000000, 0.00000000, 0.00000000, -0.94009420, 0.34065261, -0.00822286, -0.01053916
424168343.479856, -0.02316284, -0.01412964, 0.99249268, 0.00953465, 0.00213346, -0.02430667, -153.13825989, 139.79211426, 188.54977417, -0.02267227, -0.01414865, 0.99964285, 0.00007400, -0.00315482, -0.00992725, 0.00000000, 0.00000000, 0.00000000, -0.94010360, 0.34062683, -0.00824891, -0.01051386
424168343.495608, -0.02316284, -0.01412964, 0.99249268, 0.00829042, -0.00254385, -0.02672535, -153.82267761, 140.13432312, 190.21394348, -0.02266826, -0.01414047, 0.99964303, 0.00133648, -0.00491775, -0.01094980, 0.00000000, 0.00000000, 0.00000000, -0.94011206, 0.34060363, -0.00824868, -0.01050914
424168343.511586, -0.02188110, -0.01612854, 0.99247742, 0.01646340, -0.00727895, -0.03021090, -155.70481873, 138.93659973, 190.38035583, -0.02257513, -0.01408411, 0.99964595, 0.00069403, -0.00204443, -0.00716852, 0.00000000, 0.00000000, 0.00000000, -0.94012851, 0.34056036, -0.00821497, -0.01046639
424168343.528273, -0.02360535, -0.01535034, 0.99247742, 0.01762400, -0.00725658, -0.02554291, -155.70481873, 138.93659973, 190.38035583, -0.02252116, -0.01406657, 0.99964738, -0.00108419, -0.00128377, -0.00716999, 0.00000000, 0.00000000, 0.00000000, -0.94013945, 0.34053122, -0.00819291, -0.01044869
424168343.543100, -0.02458191, -0.01580811, 0.99075317, 0.01186225, -0.00023516, -0.02781326, -153.82267761, 137.73886108, 189.88111877, -0.02248755, -0.01403467, 0.99964863, -0.00131616, -0.00323828, -0.00866655, 0.00000000, 0.00000000, 0.00000000, -0.94014502, 0.34051674, -0.00818270, -0.01042784
424168343.558707, -0.02458191, -0.01556396, 0.99398804, 0.01064892, -0.00376624, -0.03370470, -154.33598328, 138.25218201, 191.04602051, -0.02251334, -0.01401033, 0.99964839, 0.00116629, -0.00404081, -0.01245049, 0.00000000, 0.00000000, 0.00000000, -0.94015545, 0.34048776, -0.00819929, -0.01042054
424168343.575055, -0.02215576, -0.01536560, 0.98924255, 0.01777101, 0.00208872, -0.02422145, -156.38923645, 139.62101746, 190.71319580, -0.02257263, -0.01401608, 0.99964696, -0.00101745, -0.00206669, -0.00864964, 0.00000000, 0.00000000, 0.00000000, -0.94015923, 0.34047629, -0.00822632, -0.01043324
424168343.590270, -0.02215576, -0.01536560, 0.98924255, 0.01181458, -0.00495454, -0.03604003, -155.36260986, 138.25218201, 191.37886047, -0.02258461, -0.01392180, 0.99964797, 0.00042885, -0.00144380, -0.01040544, 0.00000000, 0.00000000, 0.00000000, -0.94016465, 0.34046209, -0.00824815, -0.01039082
424168343.606424, -0.02340698, -0.01438904, 0.99348450, 0.01181645, -0.00255557, -0.02552480, -154.84930420, 138.42327881, 192.21093750, -0.02259523, -0.01389231, 0.99964815, -0.00081175, -0.00049673, -0.00616367, 0.00000000, 0.00000000, 0.00000000, -0.94018868, 0.34039584, -0.00825890, -0.01037818
424168343.621713, -0.02136230, -0.01712036, 0.99371338, 0.01180153, -0.00372976, -0.02670831, -154.84930420, 138.42327881, 192.21093750, -0.02251811, -0.01391733, 0.99964958, 0.00115581, -0.00320303, -0.00593618, 0.00000000, 0.00000000, 0.00000000, -0.94020489, 0.34035208, -0.00821886, -0.01037643
424168343.637864, -0.02334595, -0.01658630, 0.99246216, 0.01293231, -0.00605656, -0.02440787, -153.82267761, 137.39665222, 192.54377747, -0.02256684, -0.01394165, 0.99964809, -0.00369354, -0.00328552, -0.00991729, 0.00000000, 0.00000000, 0.00000000, -0.94021080, 0.34033470, -0.00823783, -0.01039601
424168343.654009, -0.02360535, -0.01583862, 0.99047852, 0.01297572, -0.00133025, -0.01501730, -154.67819214, 138.25218201, 192.71018982, -0.02257668, -0.01391744, 0.99964821, -0.00083030, -0.00070048, -0.00717082, 0.00000000, 0.00000000, 0.00000000, -0.94021297, 0.34032880, -0.00824664, -0.01038625
424168343.669917, -0.02360535, -0.01583862, 0.99047852, 0.01297572, -0.00133025, -0.01501730, -154.67819214, 139.27880859, 191.04602051, -0.02262601, -0.01389822, 0.99964738, -0.00097933, -0.00194040, -0.00916887, 0.00000000, 0.00000000, 0.00000000, -0.94020331, 0.34035486, -0.00827282, -0.01038585
424168343.686310, -0.02577209, -0.01722717, 0.99099731, 0.01430064, 0.00680571, -0.01952337, -155.02040100, 139.27880859, 191.04602051, -0.02261196, -0.01394815, 0.99964702, -0.00316014, -0.00327902, -0.00864970, 0.00000000, 0.00000000, 0.00000000, -0.94019617, 0.34037430, -0.00825750, -0.01040710
424168343.700833, -0.02310181, -0.01631165, 0.99197388, 0.01761175, -0.00723528, -0.02205097, -155.53372192, 139.79211426, 191.54527283, -0.02263542, -0.01395948, 0.99964631, -0.00046639, -0.00235217, -0.00767245, 0.00000000, 0.00000000, 0.00000000, -0.94020758, 0.34034228, -0.00826696, -0.01041614
424168343.717227, -0.02017212, -0.01589966, 0.99221802, 0.01289875, -0.00839801, -0.02561135, -153.99377441, 137.90997314, 190.71319580, -0.02257192, -0.01382433, 0.99964964, 0.00192678, -0.00282301, -0.00694334, 0.00000000, 0.00000000, 0.00000000, -0.94020432, 0.34035371, -0.00825998, -0.01034188
424168343.733054, -0.02262878, -0.01632690, 0.98947144, 0.01286600, -0.01194295, -0.03265408, -153.99377441, 137.90997314, 190.71319580, -0.02252471, -0.01385455, 0.99965030, -0.00198091, -0.00415082, -0.00718813, 0.00000000, 0.00000000, 0.00000000, -0.94020470, 0.34035315, -0.00823264, -0.01034804
424168343.748401, -0.02262878, -0.01632690, 0.98947144, 0.00961268, 0.00799827, -0.01955240, -153.65156555, 138.25218201, 189.71469116, -0.02238448, -0.01380174, 0.99965417, -0.00024430, -0.00252516, -0.01018273, 0.00000000, 0.00000000, 0.00000000, -0.94022673, 0.34029512, -0.00817633, -0.01029883
424168343.764458, -0.02243042, -0.01364136, 0.99101257, 0.01885731, -0.00376065, -0.02547154, -154.33598328, 137.90997314, 189.71469116, -0.02245580, -0.01378204, 0.99965286, 0.00002538, 0.00014069, -0.00864026, 0.00000000, 0.00000000, 0.00000000, -0.94024093, 0.34025492, -0.00821365, -0.01030136
424168343.780014, -0.02360535, -0.01631165, 0.98997498, 0.00832531, -0.00140482, -0.03136165, -155.53372192, 138.76548767, 188.88261414, -0.02246832, -0.01370873, 0.99965358, -0.00113703, -0.00260292, -0.00967859, 0.00000000, 0.00000000, 0.00000000, -0.94025481, 0.34021711, -0.00823243, -0.01026868
424168343.795862, -0.02337646, -0.01557922, 0.99122620, 0.00832531, -0.00140482, -0.03136165, -153.30935669, 138.93659973, 190.71319580, -0.02241379, -0.01368361, 0.99965513, 0.00054795, -0.00291795, -0.00768125, 0.00000000, 0.00000000, 0.00000000, -0.94026265, 0.34019659, -0.00821128, -0.01024741
424168343.811554, -0.02235413, -0.01730347, 0.99072266, 0.01187024, -0.00024954, -0.03014112, -155.36260986, 138.25218201, 189.04902649, -0.02244478, -0.01365365, 0.99965483, 0.00132662, -0.00369559, -0.00646027, 0.00000000, 0.00000000, 0.00000000, -0.94027000, 0.34017605, -0.00823117, -0.01023842
424168343.827962, -0.02235413, -0.01730347, 0.99072266, 0.01539440, 0.00094116, -0.02310159, -155.36260986, 138.25218201, 189.04902649, -0.02247229, -0.01360890, 0.99965483, 0.00011817, -0.00369456, -0.00893218, 0.00000000, 0.00000000, 0.00000000, -0.94027528, 0.34016145, -0.00825188, -0.01022193
424168343.843224, -0.02406311, -0.01657104, 0.99247742, 0.01639602, -0.01196212, -0.03261760, -154.67819214, 139.96322632, 189.71469116, -0.02250168, -0.01368407, 0.99965316, -0.00156143, -0.00288697, -0.00717573, 0.00000000, 0.00000000, 0.00000000, -0.94028233, 0.34014074, -0.00825314, -0.01026209
424168343.859391, -0.02435303, -0.01484680, 0.99375916, 0.02002005, -0.00614445, -0.03248231, -153.30935669, 137.22555542, 191.37886047, -0.02244784, -0.01361617, 0.99965531, -0.00190518, -0.00123063, -0.00589613, 0.00000000, 0.00000000, 0.00000000, -0.94029142, 0.34011717, -0.00823963, -0.01022079
424168343.875578, -0.02310181, -0.01608276, 0.99223328, 0.01537017, -0.00261762, -0.03247192, -153.82267761, 137.39665222, 190.54678345, -0.02236259, -0.01355324, 0.99965805, -0.00147164, -0.00274315, -0.00768418, 0.00000000, 0.00000000, 0.00000000, -0.94031732, 0.34004758, -0.00821099, -0.01017609
424168343.890236, -0.01921082, -0.01519775, 0.99121094, 0.01884906, -0.00374654, -0.02314367, -154.67819214, 137.90997314, 192.04452515, -0.02232238, -0.01349279, 0.99965978, 0.00022765, -0.00384120, -0.00669407, 0.00000000, 0.00000000, 0.00000000, -0.94031905, 0.34004407, -0.00820240, -0.01014078
424168343.906676, -0.01921082, -0.01519775, 0.99121094, 0.01414005, -0.00491726, -0.02786785, -155.02040100, 137.22555542, 193.04302979, -0.02224231, -0.01343734, 0.99966228, -0.00113415, -0.00189775, -0.00817671, 0.00000000, 0.00000000, 0.00000000, -0.94032613, 0.34002634, -0.00817437, -0.01010093
424168343.922090, -0.02162170, -0.01612854, 0.99247742, 0.01297519, -0.00493217, -0.03137204, -155.19151306, 138.76548767, 192.54377747, -0.02216780, -0.01339803, 0.99966449, 0.00054610, -0.00273051, -0.00718707, 0.00000000, 0.00000000, 0.00000000, -0.94034664, 0.33997122, -0.00814660, -0.01006930
424168343.938080, -0.02038574, -0.01760864, 0.98970032, 0.01772280, 0.00217447, -0.01025397, -155.19151306, 138.76548767, 192.54377747, -0.02210892, -0.01345685, 0.99966502, 0.00172318, -0.00415179, -0.00996468, 0.00000000, 0.00000000, 0.00000000, -0.94036379, 0.33992417, -0.00810942, -0.01008654
424168343.953666, -0.02310181, -0.01681519, 0.99072266, 0.01300368, -0.00138032, -0.02316524, -154.50709534, 137.39665222, 192.21093750, -0.02210643, -0.01338405, 0.99966604, 0.00121715, -0.00250035, -0.00744801, 0.00000000, 0.00000000, 0.00000000, -0.94035268, 0.33995568, -0.00812028, -0.01005214
424168343.969823, -0.02383423, -0.01631165, 0.99421692, 0.01305215, 0.00213586, -0.02077852, -153.82267761, 138.76548767, 190.87960815, -0.02207584, -0.01342069, 0.99966621, 0.00170536, -0.00418795, -0.00869942, 0.00000000, 0.00000000, 0.00000000, -0.94036554, 0.33992022, -0.00810005, -0.01006387
424168343.987847, -0.01997375, -0.01396179, 0.99247742, 0.01652864, -0.00018935, -0.01612517, -152.96716309, 138.59439087, 190.04753113, -0.02216043, -0.01346976, 0.99966371, -0.00234518, -0.00453561, -0.00570616, 0.00000000, 0.00000000, 0.00000000, -0.94037135, 0.33990228, -0.00813168, -0.01010118
424168344.001599, -0.01997375, -0.01396179, 0.99247742, 0.01645807, -0.00606855, -0.02320758, -153.48046875, 139.10769653, 190.87960815, -0.02218506, -0.01343286, 0.99966365, 0.00221130, -0.00052894, -0.00718622, 0.00000000, 0.00000000, 0.00000000, -0.94036403, 0.33992250, -0.00814932, -0.01008818
424168344.017478, -0.02284241, -0.01684570, 0.99395752, 0.01763891, -0.00608213, -0.02435914, -153.48046875, 138.76548767, 189.54827881, -0.02216145, -0.01346472, 0.99966371, -0.00068095, -0.00338099, -0.00570621, 0.00000000, 0.00000000, 0.00000000, -0.94036438, 0.33992161, -0.00813281, -0.01009915
424168344.032844, -0.02017212, -0.01663208, 0.98870850, 0.01536511, -0.00140721, -0.02546861, -153.48046875, 138.76548767, 189.54827881, -0.02204339, -0.01337838, 0.99966753, 0.00043694, -0.00323844, -0.00670180, 0.00000000, 0.00000000, 0.00000000, -0.94038747, 0.33986049, -0.00809262, -0.01003794
424168344.048597, -0.02363586, -0.01460266, 0.99148560, 0.01886290, -0.00136913, -0.01612038, -154.84930420, 138.42327881, 188.54977417, -0.02199771, -0.01337657, 0.99966854, -0.00133298, -0.00392690, -0.00593989, 0.00000000, 0.00000000, 0.00000000, -0.94039846, 0.33983083, -0.00807176, -0.01002907
424168344.064901, -0.02363586, -0.01460266, 0.99148560, 0.01884346, -0.00613805, -0.03249456, -154.50709534, 139.79211426, 188.54977417, -0.02205210, -0.01333892, 0.99966782, -0.00127859, -0.00394929, -0.00819750, 0.00000000, 0.00000000, 0.00000000, -0.94039948, 0.33982752, -0.00810377, -0.01002058
424168344.080960, -0.02040100, -0.01712036, 0.99044800, 0.01068567, -0.00022877, -0.02782551, -155.02040100, 139.27880859, 188.05053711, -0.02198636, -0.01329693, 0.99966985, 0.00158536, -0.00382343, -0.00922184, 0.00000000, 0.00000000, 0.00000000, -0.94040228, 0.33982124, -0.00808006, -0.00998960
424168344.096171, -0.02630615, -0.01478577, 0.99124146, 0.01648523, -0.00491566, -0.02551575, -154.84930420, 139.44990540, 190.54678345, -0.02203581, -0.01336022, 0.99966788, -0.00427034, -0.00142554, -0.00842645, 0.00000000, 0.00000000, 0.00000000, -0.94042183, 0.33976570, -0.00809315, -0.01002729
424168344.111705, -0.01969910, -0.01542664, 0.99296570, 0.01411715, -0.00607707, -0.02672349, -155.19151306, 138.76548767, 191.21244812, -0.02194873, -0.01331045, 0.99967051, -0.00138196, -0.00397776, -0.00769661, 0.00000000, 0.00000000, 0.00000000, -0.94043229, 0.33973866, -0.00806094, -0.00998885
424168344.128710, -0.02261353, -0.01585388, 0.99148560, 0.01073733, 0.00808456, -0.00440886, -155.53372192, 139.10769653, 191.54527283, -0.02188746, -0.01330298, 0.99967194, -0.00051244, -0.00181848, -0.00794220, 0.00000000, 0.00000000, 0.00000000, -0.94044032, 0.33971749, -0.00803361, -0.00997474
424168344.143512, -0.02261353, -0.01585388, 0.99148560, 0.01411955, -0.00848297, -0.03840278, -155.53372192, 139.10769653, 191.54527283, -0.02196311, -0.01331826, 0.99967009, 0.00003623, -0.00181846, -0.00943569, 0.00000000, 0.00000000, 0.00000000, -0.94042551, 0.33975711, -0.00806618, -0.00999512
424168344.159516, -0.02210999, -0.01660156, 0.99121094, 0.01411875, -0.00367836, -0.01620853, -155.36260986, 138.93659973, 192.37736511, -0.02190657, -0.01327500, 0.99967188, -0.00020342, -0.00332656, -0.00846095, 0.00000000, 0.00000000, 0.00000000, -0.94043049, 0.33974465, -0.00804707, -0.00996506
424168344.175080, -0.02334595, -0.01681519, 0.99221802, 0.01421009, 0.00096193, -0.02078597, -155.19151306, 137.39665222, 191.87811279, -0.02186329, -0.01335816, 0.99967170, -0.00148266, -0.00345702, -0.00745371, 0.00000000, 0.00000000, 0.00000000, -0.94044665, 0.33969982, -0.00801306, -0.00999644
424168344.191673, -0.02288818, -0.01559448, 0.98999023, 0.01413606, -0.00491007, -0.02670378, -154.84930420, 137.39665222, 192.54377747, -0.02190195, -0.01329014, 0.99967176, -0.00432790, -0.00419643, -0.00768265, 0.00000000, 0.00000000, 0.00000000, -0.94043863, 0.33972205, -0.00804256, -0.00997121
424168344.206818, -0.02302551, -0.01853943, 0.99244690, 0.01417654, -0.00137952, -0.02198892, -154.33598328, 138.93659973, 193.04302979, -0.02188238, -0.01332482, 0.99967176, 0.00102361, -0.00451271, -0.00971203, 0.00000000, 0.00000000, 0.00000000, -0.94044843, 0.33969489, -0.00802776, -0.00998396
424168344.221990, -0.02302551, -0.01853943, 0.99244690, 0.01188649, 0.00332363, -0.01844292, -155.02040100, 138.59439087, 192.37736511, -0.02187389, -0.01337517, 0.99967128, 0.00096935, -0.00275337, -0.00945215, 0.00000000, 0.00000000, 0.00000000, -0.94043732, 0.33972530, -0.00801489, -0.01000646
424168344.238597, -0.02432251, -0.01582336, 0.99200439, 0.01657551, 0.00092758, -0.02425341, -153.99377441, 138.93659973, 191.04602051, -0.02190525, -0.01329164, 0.99967170, -0.00241726, -0.00253172, -0.00766730, 0.00000000, 0.00000000, 0.00000000, -0.94043037, 0.33974484, -0.00804362, -0.00997267
424168344.254179, -0.02256775, -0.01756287, 0.99197388, 0.00956821, 0.00447518, -0.02310346, -153.99377441, 138.93659973, 191.04602051, -0.02192512, -0.01327839, 0.99967146, -0.00064263, -0.00428448, -0.00769756, 0.00000000, 0.00000000, 0.00000000, -0.94043693, 0.33972650, -0.00805541, -0.00996965
424168344.270398, -0.02479553, -0.01701355, 0.98773193, 0.01302925, 0.00097552, -0.01963416, -153.48046875, 138.42327881, 191.87811279, -0.02211822, -0.01335869, 0.99966609, -0.00267732, -0.00365486, -0.01193418, 0.00000000, 0.00000000, 0.00000000, -0.94043273, 0.33973421, -0.00813250, -0.01004031
424168344.285680, -0.02697754, -0.01698303, 0.99150085, 0.01409025, -0.00723048, -0.02441533, -153.48046875, 138.42327881, 189.21545410, -0.02215547, -0.01332564, 0.99966574, 0.00024385, -0.00228410, -0.00943135, 0.00000000, 0.00000000, 0.00000000, -0.94041945, 0.33977068, -0.00815525, -0.01003141
424168344.301709, -0.02583313, -0.01551819, 0.99024963, 0.00941321, -0.00485601, -0.02209678, -153.48046875, 139.10769653, 188.54977417, -0.02229654, -0.01337512, 0.99966192, -0.00130881, -0.00197522, -0.00668097, 0.00000000, 0.00000000, 0.00000000, -0.94041889, 0.33976943, -0.00821320, -0.01007866
424168344.317856, -0.02583313, -0.01551819, 0.99024963, 0.01295069, -0.00849096, -0.04074290, -153.82267761, 139.79211426, 190.21394348, -0.02230084, -0.01338853, 0.99966162, -0.00353229, -0.00212965, -0.00941202, 0.00000000, 0.00000000, 0.00000000, -0.94043176, 0.33973362, -0.00821333, -0.01008538
424168344.332915, -0.02157593, -0.01757812, 0.99098206, 0.01531344, -0.00611915, -0.03253105, -155.19151306, 138.08106995, 189.88111877, -0.02217210, -0.01340048, 0.99966437, 0.00059617, -0.00417764, -0.00868230, 0.00000000, 0.00000000, 0.00000000, -0.94046024, 0.33965675, -0.00815157, -0.01006845
424168344.348818, -0.02334595, -0.01728821, 0.98947144, 0.01066276, -0.00138884, -0.02668115, -155.19151306, 138.08106995, 189.88111877, -0.02221133, -0.01345494, 0.99966276, -0.00113462, -0.00383327, -0.01019132, 0.00000000, 0.00000000, 0.00000000, -0.94048638, 0.33958321, -0.00816157, -0.01010009
424168344.364997, -0.02282715, -0.01730347, 0.99098206, 0.01538109, -0.00143598, -0.03012435, -154.16488647, 137.05444336, 190.54678345, -0.02216881, -0.01348977, 0.99966323, 0.00079125, -0.00312705, -0.00869643, 0.00000000, 0.00000000, 0.00000000, -0.94049427, 0.33956168, -0.00813589, -0.01010907
424168344.380491, -0.02629089, -0.01551819, 0.99224854, 0.00711677, -0.00134143, -0.02206189, -154.50709534, 138.08106995, 191.87811279, -0.02217353, -0.01351277, 0.99966282, -0.00021111, -0.00258526, -0.00892490, 0.00000000, 0.00000000, 0.00000000, -0.94051762, 0.33949671, -0.00813490, -0.01012012
424168344.396255, -0.02629089, -0.01551819, 0.99224854, 0.01539227, 0.00334706, -0.01142256, -155.02040100, 138.59439087, 190.71319580, -0.02223599, -0.01353461, 0.99966115, -0.00405490, -0.00198358, -0.00741259, 0.00000000, 0.00000000, 0.00000000, -0.94052484, 0.33947548, -0.00816080, -0.01014082
424168344.412004, -0.02453613, -0.01776123, 0.98973083, 0.00835221, -0.00025194, -0.03367008, -156.38923645, 138.59439087, 192.71018982, -0.02233681, -0.01363703, 0.99965751, -0.00219932, -0.00412420, -0.00992666, 0.00000000, 0.00000000, 0.00000000, -0.94051198, 0.33950842, -0.00819048, -0.01020641
424168344.428352, -0.02485657, -0.01481628, 0.99075317, 0.01416163, -0.00255424, -0.02317270, -155.19151306, 137.73886108, 190.87960815, -0.02244719, -0.01371869, 0.99965388, -0.00240938, -0.00109760, -0.00890073, 0.00000000, 0.00000000, 0.00000000, -0.94050934, 0.33951309, -0.00822848, -0.01026361
424168344.443712, -0.02217102, -0.01487732, 0.98973083, 0.01072082, 0.00451166, -0.01610733, -155.19151306, 137.73886108, 190.87960815, -0.02243994, -0.01376506, 0.99965340, 0.00080297, -0.00257710, -0.00967845, 0.00000000, 0.00000000, 0.00000000, -0.94053367, 0.33944533, -0.00821794, -0.01028360
424168344.459156, -0.02166748, -0.01487732, 0.98898315, 0.01069233, 0.00095954, -0.02431413, -155.36260986, 138.93659973, 192.71018982, -0.02242507, -0.01373303, 0.99965417, 0.00023879, -0.00016772, -0.00790920, 0.00000000, 0.00000000, 0.00000000, -0.94053231, 0.33944967, -0.00821633, -0.01026605
424168344.475247, -0.02166748, -0.01487732, 0.98898315, 0.01305615, 0.00212866, -0.02194232, -155.19151306, 137.73886108, 191.21244812, -0.02240837, -0.01373541, 0.99965453, 0.00074089, -0.00114191, -0.01067139, 0.00000000, 0.00000000, 0.00000000, -0.94053916, 0.33943094, -0.00820828, -0.01026417
424168344.491578, -0.02230835, -0.01831055, 0.99244690, 0.01305482, -0.00027004, -0.03245701, -155.19151306, 138.76548767, 191.21244812, -0.02248261, -0.01378297, 0.99965221, 0.00017426, -0.00452758, -0.00720532, 0.00000000, 0.00000000, 0.00000000, -0.94053294, 0.33944647, -0.00823496, -0.01029928
424168344.506927, -0.02409363, -0.01557922, 0.99275208, 0.02000007, -0.00610876, -0.02666250, -154.33598328, 139.96322632, 190.71319580, -0.02248952, -0.01387134, 0.99965084, -0.00160411, -0.00170788, -0.00689877, 0.00000000, 0.00000000, 0.00000000, -0.94056031, 0.33936959, -0.00822406, -0.01034135
424168344.522298, -0.02333069, -0.01754761, 0.98947144, 0.01416109, -0.00615563, -0.03952717, -152.79605103, 138.76548767, 190.87960815, -0.02249973, -0.01386805, 0.99965066, -0.00031216, -0.00395421, -0.00518960, 0.00000000, 0.00000000, 0.00000000, -0.94056917, 0.33934490, -0.00822969, -0.01034132
424168344.538819, -0.02136230, -0.01733398, 0.99195862, 0.01775609, 0.00091426, -0.02540523, -153.13825989, 138.42327881, 190.87960815, -0.02244003, -0.01387147, 0.99965197, -0.00038712, -0.00320312, -0.00767808, 0.00000000, 0.00000000, 0.00000000, -0.94060460, 0.33924763, -0.00820209, -0.01033194
424168344.554550, -0.02136230, -0.01733398, 0.99195862, 0.01197277, 0.00917432, -0.01601625, -153.13825989, 138.42327881, 190.87960815, -0.02245834, -0.01387490, 0.99965149, -0.00087235, -0.00342857, -0.00592286, 0.00000000, 0.00000000, 0.00000000, -0.94060932, 0.33923421, -0.00821027, -0.01033655
424168344.570015, -0.02113342, -0.01661682, 0.99145508, 0.01063800, -0.00494815, -0.03605228, -152.96716309, 138.93659973, 190.38035583, -0.02245228, -0.01388233, 0.99965155, 0.00131886, -0.00273449, -0.00819645, 0.00000000, 0.00000000, 0.00000000, -0.94060157, 0.33925573, -0.00820593, -0.01033921
424168344.587030, -0.02401733, -0.01826477, 0.99098206, 0.01069898, 0.00214864, -0.02080275, -153.30935669, 140.30543518, 188.71620178, -0.02248034, -0.01395285, 0.99964994, -0.00153699, -0.00431192, -0.00866786, 0.00000000, 0.00000000, 0.00000000, -0.94059975, 0.33925959, -0.00820712, -0.01037718
424168344.601609, -0.02151489, -0.02003479, 0.99269104, 0.01409158, -0.00843317, -0.03025484, -154.16488647, 139.79211426, 187.88410950, -0.02248959, -0.01400454, 0.99964899, 0.00134091, -0.00187986, -0.00743097, 0.00000000, 0.00000000, 0.00000000, -0.94061049, 0.33922912, -0.00820304, -0.01040280
424168344.617813, -0.02235413, -0.01730347, 0.98997498, 0.01062601, -0.00492658, -0.03256007, -153.48046875, 139.79211426, 189.54827881, -0.02244433, -0.01408926, 0.99964881, -0.00334303, -0.00290903, -0.00917029, 0.00000000, 0.00000000, 0.00000000, -0.94062907, 0.33917747, -0.00816795, -0.01043452
424168344.633029, -0.02235413, -0.01730347, 0.98997498, 0.01186065, 0.00096753, -0.02197401, -155.87593079, 138.08106995, 187.88410950, -0.02238790, -0.01404893, 0.99965066, -0.00053080, -0.00034011, -0.01016395, 0.00000000, 0.00000000, 0.00000000, -0.94063861, 0.33915236, -0.00814852, -0.01040576
424168344.648950, -0.02284241, -0.01660156, 0.99246216, 0.01769830, -0.00138431, -0.01962457, -155.87593079, 138.08106995, 187.88410950, -0.02240108, -0.01403062, 0.99965060, -0.00044132, -0.00257094, -0.00718845, 0.00000000, 0.00000000, 0.00000000, -0.94064755, 0.33912753, -0.00815810, -0.01039916
424168344.665009, -0.02609253, -0.01504517, 0.99075317, 0.01645541, -0.00726457, -0.02788303, -153.48046875, 139.10769653, 190.54678345, -0.02249041, -0.01403008, 0.99964863, -0.00360212, -0.00101509, -0.00889543, 0.00000000, 0.00000000, 0.00000000, -0.94064144, 0.33914303, -0.00820004, -0.01041420
