Timestamp, AccelerationX, AccelerationY, AccelerationZ, GyroX, GyroY, GyroZ, MagnetometerX, MagnetometerY, MagnetometerZ, DMUserAccelerationX, DMUserAccelerationY, DMUserAccelerationZ, DMGravityX, DMGravityY, DMGravityZ, DMMagX, DMMagY, DMMagZ, DMAttitudeX, DMAttitudeY, DMAttitudeZ, DMAttitudeW 
424169100.072321, -0.09886169, -0.71466064, -0.62165833, 0.06681658, -0.02993739, -0.06381600, -169.90646362, 164.43112183, 228.15689087, -0.11469255, -0.72184503, -0.68248469, 0.02646623, 0.00112667, 0.04823786, 0.00000000, 0.00000000, 0.00000000, 0.20791789, -0.33989382, -0.69761687, 0.59546037
424169100.087723, -0.13197327, -0.74362183, -0.66839600, 0.05831337, 0.02973712, -0.04777818, -169.56427002, 164.08891296, 226.49272156, -0.11449780, -0.72242671, -0.68190163, 0.01563611, 0.00776610, 0.06024332, 0.00000000, 0.00000000, 0.00000000, 0.20810541, -0.34020775, -0.69773252, 0.59507995
424169100.103469, -0.13560486, -0.74830627, -0.69787598, 0.05297480, 0.06602616, -0.03558915, -170.41978455, 165.97105408, 226.32630920, -0.11438291, -0.72344702, -0.68083841, -0.01759036, -0.02017479, 0.01244241, 0.00000000, 0.00000000, 0.00000000, 0.20850007, -0.34074700, -0.69765150, 0.59472816
424169100.119570, -0.11369324, -0.72584534, -0.68757629, 0.00924969, 0.05579136, -0.03039705, -172.64413452, 164.43112183, 228.15689087, -0.11350378, -0.72394508, -0.68045604, -0.02210107, -0.02436121, -0.01741993, 0.00000000, 0.00000000, 0.00000000, 0.20911352, -0.34065160, -0.69748736, 0.59475996
424169100.135895, -0.09593201, -0.71232605, -0.67460632, -0.03530020, 0.05814639, -0.06690313, -171.61750793, 164.08891296, 228.15689087, -0.11274957, -0.72414601, -0.68036765, -0.00417853, -0.01654614, -0.00582012, 0.00000000, 0.00000000, 0.00000000, 0.20954230, -0.34045295, -0.69740069, 0.59482442
424169100.151097, -0.09593201, -0.71232605, -0.67460632, -0.07092584, 0.10966738, -0.07223398, -170.93309021, 164.08891296, 226.49272156, -0.11180587, -0.72379500, -0.68089664, 0.01035018, 0.00745587, 0.00204840, 0.00000000, 0.00000000, 0.00000000, 0.20975873, -0.33993079, -0.69754190, 0.59488120
424169100.167334, -0.11712646, -0.71646118, -0.68972778, -0.06196696, 0.08280514, -0.06676971, -172.47303772, 162.20677185, 228.32330322, -0.11015284, -0.72302496, -0.68198335, 0.01422084, 0.01069889, 0.00737703, 0.00000000, 0.00000000, 0.00000000, 0.21005085, -0.33894980, -0.69786114, 0.59496345
424169100.182883, -0.11045837, -0.71618652, -0.66705322, -0.02654133, 0.02323422, -0.04178899, -170.76199341, 163.23339844, 227.99046326, -0.10877729, -0.72208440, -0.68319952, -0.00834918, 0.00562324, -0.00652826, 0.00000000, 0.00000000, 0.00000000, 0.21020670, -0.33795470, -0.69812430, 0.59516571
424169100.198586, -0.10023499, -0.72351074, -0.66766357, -0.00424827, 0.02202461, -0.02877386, -169.73536682, 164.26002502, 228.65612793, -0.10802945, -0.72163385, -0.68379396, -0.00242892, 0.00544733, 0.01674076, 0.00000000, 0.00000000, 0.00000000, 0.21027081, -0.33747473, -0.69833507, 0.59516815
424169100.215427, -0.08790588, -0.72958374, -0.68800354, 0.02275511, 0.02078251, -0.01687405, -170.07757568, 164.26002502, 227.99046326, -0.10767821, -0.72141987, -0.68407512, -0.00020142, 0.00051836, 0.01747969, 0.00000000, 0.00000000, 0.00000000, 0.21030491, -0.33724512, -0.69842579, 0.59517979
424169100.230333, -0.08790588, -0.72958374, -0.68800354, 0.03905020, 0.00660091, -0.03090732, -170.07757568, 164.26002502, 227.99046326, -0.10724005, -0.72168446, -0.68386483, 0.01295600, -0.00654123, 0.00065253, 0.00000000, 0.00000000, 0.00000000, 0.21060939, -0.33721103, -0.69835378, 0.59517594
424169100.246071, -0.08670044, -0.73863220, -0.69558716, 0.02384142, 0.01493261, -0.01812441, -170.76199341, 163.57560730, 227.65763855, -0.10707457, -0.72196645, -0.68359303, 0.01916868, -0.00761729, -0.00441048, 0.00000000, 0.00000000, 0.00000000, 0.21078839, -0.33730064, -0.69830856, 0.59511486
424169100.263242, -0.08280945, -0.73890686, -0.70585632, 0.01913348, 0.01255920, -0.02868784, -171.78862000, 164.94442749, 228.65612793, -0.10635664, -0.72226399, -0.68339080, 0.01965620, -0.01636821, -0.01219635, 0.00000000, 0.00000000, 0.00000000, 0.21115056, -0.33722401, -0.69836095, 0.59496839
424169100.278292, -0.09463501, -0.74357605, -0.69783020, 0.01786582, 0.00312016, -0.04631690, -170.59088135, 163.74670410, 227.15838623, -0.10614260, -0.72237360, -0.68330824, 0.02333316, -0.01653327, -0.02254809, 0.00000000, 0.00000000, 0.00000000, 0.21127749, -0.33720573, -0.69835403, 0.59494182
424169100.294659, -0.10058594, -0.73910522, -0.68400574, 0.01543142, -0.00392736, -0.05577085, -170.59088135, 162.37786865, 228.15689087, -0.10588183, -0.72250009, -0.68321496, 0.01904406, -0.02122854, -0.02091714, 0.00000000, 0.00000000, 0.00000000, 0.21140518, -0.33719487, -0.69838948, 0.59486099
424169100.310958, -0.10058594, -0.73910522, -0.68400574, 0.01574567, 0.01832921, -0.04259353, -170.24867249, 164.08891296, 227.15838623, -0.10481951, -0.72298038, -0.68287057, 0.01189348, -0.01899350, -0.00246266, 0.00000000, 0.00000000, 0.00000000, 0.21187693, -0.33715408, -0.69860108, 0.59446768
424169100.324991, -0.10079956, -0.73223877, -0.68647766, -0.01211419, 0.04422605, -0.03197684, -170.24867249, 162.72007751, 230.15388489, -0.10425269, -0.72325295, -0.68266869, 0.00366675, -0.01585226, -0.00133706, 0.00000000, 0.00000000, 0.00000000, 0.21213777, -0.33713977, -0.69870634, 0.59425902
424169100.341153, -0.10078430, -0.72271729, -0.68089294, -0.00264452, 0.04767698, -0.03182051, -171.10420227, 163.23339844, 228.32330322, -0.10352059, -0.72336996, -0.68265617, 0.00272103, -0.00886882, -0.00382152, 0.00000000, 0.00000000, 0.00000000, 0.21247884, -0.33693422, -0.69871261, 0.59424638
424169100.356574, -0.10963440, -0.71942139, -0.66435242, 0.00220004, 0.06181623, -0.00592873, -170.24867249, 165.11553955, 227.82405090, -0.10283118, -0.72314304, -0.68300062, 0.00204688, 0.00042578, 0.00210768, 0.00000000, 0.00000000, 0.00000000, 0.21268551, -0.33654800, -0.69874476, 0.59435349
424169100.372761, -0.10292053, -0.72442627, -0.67239380, 0.02575330, 0.06525490, 0.00484935, -170.41978455, 164.60221863, 226.65913391, -0.10242294, -0.72317296, -0.68303031, -0.00304581, 0.00295813, 0.01617545, 0.00000000, 0.00000000, 0.00000000, 0.21294771, -0.33636010, -0.69860245, 0.59453323
424169100.388452, -0.10292053, -0.72442627, -0.67239380, 0.04565510, 0.05812189, 0.00144663, -170.41978455, 164.60221863, 226.65913391, -0.10223985, -0.72344184, -0.68277299, -0.00342726, 0.00177741, 0.01190505, 0.00000000, 0.00000000, 0.00000000, 0.21327965, -0.33634106, -0.69829331, 0.59478815
424169100.404113, -0.09996033, -0.72639465, -0.68540955, 0.04396719, 0.02421266, -0.00961188, -169.56427002, 165.11553955, 226.82556152, -0.10191702, -0.72389823, -0.68233734, -0.00266672, -0.00289315, 0.00242098, 0.00000000, 0.00000000, 0.00000000, 0.21374747, -0.33636786, -0.69794671, 0.59501183
424169100.419657, -0.10133362, -0.72334290, -0.70161438, 0.03152437, -0.02855788, -0.06067001, -171.27529907, 163.74670410, 227.49122620, -0.10166962, -0.72426826, -0.68198150, 0.00170929, -0.00212640, -0.00342803, 0.00000000, 0.00000000, 0.00000000, 0.21409412, -0.33641187, -0.69771282, 0.59513660
424169100.435716, -0.10360718, -0.73776245, -0.70149231, 0.02196123, -0.03904833, -0.06676438, -170.93309021, 164.08891296, 227.15838623, -0.10151193, -0.72414261, -0.68213844, 0.00017831, 0.00079969, -0.01947594, 0.00000000, 0.00000000, 0.00000000, 0.21404899, -0.33632397, -0.69784463, 0.59504797
424169100.451426, -0.11151123, -0.74201965, -0.68772888, 0.01504153, -0.03085325, -0.06902727, -171.44641113, 162.54898071, 226.65913391, -0.10127783, -0.72418147, -0.68213195, -0.00034571, -0.00602786, -0.02006228, 0.00000000, 0.00000000, 0.00000000, 0.21399082, -0.33636581, -0.69814302, 0.59469513
424169100.467403, -0.11151123, -0.74201965, -0.68772888, -0.00224371, -0.00618812, -0.05948490, -171.78862000, 163.57560730, 228.98896790, -0.10117301, -0.72430789, -0.68201327, -0.00724069, -0.01559081, -0.00821803, 0.00000000, 0.00000000, 0.00000000, 0.21391010, -0.33650531, -0.69843019, 0.59430792
424169100.483081, -0.09584045, -0.74266052, -0.67683411, -0.02066453, 0.02561535, -0.02888518, -170.07757568, 163.91781616, 228.98896790, -0.10100836, -0.72464639, -0.68167806, -0.00307185, -0.02050132, 0.00235674, 0.00000000, 0.00000000, 0.00000000, 0.21399577, -0.33669986, -0.69857878, 0.59399217
424169100.499345, -0.09068298, -0.73706055, -0.70129395, -0.02300172, 0.02559964, -0.03356568, -171.44641113, 163.23339844, 228.32330322, -0.10060851, -0.72465301, -0.68173009, 0.00476805, -0.01800752, 0.00489601, 0.00000000, 0.00000000, 0.00000000, 0.21411925, -0.33658266, -0.69866308, 0.59391494
424169100.514721, -0.08691406, -0.73200989, -0.70127869, -0.00326370, 0.01395443, -0.01144014, -170.93309021, 164.77333069, 227.82405090, -0.09975599, -0.72430575, -0.68222427, 0.00907301, -0.01275481, -0.01906968, 0.00000000, 0.00000000, 0.00000000, 0.21427866, -0.33611386, -0.69883753, 0.59391770
424169100.530418, -0.09362793, -0.72508240, -0.67970276, 0.04111255, -0.00730505, -0.01249582, -170.93309021, 164.77333069, 227.82405090, -0.09932208, -0.72397447, -0.68263906, 0.00981402, -0.01113295, -0.02015025, 0.00000000, 0.00000000, 0.00000000, 0.21430655, -0.33578739, -0.69893960, 0.59397220
424169100.545768, -0.09362793, -0.72508240, -0.67970276, 0.04825888, -0.00149244, -0.00999618, -170.59088135, 164.77333069, 227.82405090, -0.09886357, -0.72401357, -0.68266416, 0.01034733, -0.00116041, -0.00657532, 0.00000000, 0.00000000, 0.00000000, 0.21446941, -0.33566469, -0.69901523, 0.59389377
424169100.562201, -0.10597229, -0.72970581, -0.67666626, 0.04631237, 0.02061260, -0.02361425, -170.07757568, 163.91781616, 228.65612793, -0.09887773, -0.72458625, -0.68205428, -0.00028914, -0.00284603, 0.01010296, 0.00000000, 0.00000000, 0.00000000, 0.21471262, -0.33596334, -0.69887429, 0.59380287
424169100.577658, -0.10966492, -0.72032166, -0.68457031, 0.03792261, 0.07888470, -0.04600637, -171.61750793, 163.06228638, 227.82405090, -0.09890821, -0.72508210, -0.68152267, -0.00706409, -0.00462371, 0.00485638, 0.00000000, 0.00000000, 0.00000000, 0.21494393, -0.33621093, -0.69870213, 0.59378165
424169100.594663, -0.13128662, -0.69978333, -0.68226624, 0.03579075, 0.16287600, -0.05626540, -170.93309021, 164.08891296, 227.15838623, -0.09845231, -0.72538835, -0.68126267, -0.01121261, 0.00506671, -0.00330762, 0.00000000, 0.00000000, 0.00000000, 0.21530347, -0.33617417, -0.69856807, 0.59382994
424169100.609455, -0.12913513, -0.67549133, -0.72027588, 0.04659493, 0.24200731, -0.08625606, -171.61750793, 162.03565979, 227.49122620, -0.09708001, -0.72552669, -0.68131238, -0.02190803, 0.01446710, -0.00386831, 0.00000000, 0.00000000, 0.00000000, 0.21602594, -0.33567337, -0.69838975, 0.59406055
424169100.626873, -0.16210938, -0.66339111, -0.75022888, 0.07669824, 0.27544942, -0.12611905, -170.41978455, 164.26002502, 227.65763855, -0.09550069, -0.72512954, -0.68195802, -0.03606059, 0.04347368, -0.01089782, 0.00000000, 0.00000000, 0.00000000, 0.21671025, -0.33475015, -0.69815075, 0.59461293
424169100.641055, -0.16210938, -0.66339111, -0.75022888, 0.15210005, 0.42080049, -0.14967471, -171.10420227, 164.26002502, 226.99197388, -0.09167421, -0.72579122, -0.68177927, -0.04194701, 0.05048299, -0.05747856, 0.00000000, 0.00000000, 0.00000000, 0.21860732, -0.33364834, -0.69800095, 0.59471363
424169100.656674, -0.18138123, -0.62852478, -0.73757935, 0.24895070, 0.65473549, -0.17501948, -171.10420227, 164.26002502, 228.98896790, -0.08638466, -0.72721159, -0.68095595, -0.07572471, 0.06382047, -0.06927293, 0.00000000, 0.00000000, 0.00000000, 0.22148829, -0.33236270, -0.69759901, 0.59483914
424169100.673254, -0.20150757, -0.54737854, -0.73332214, 0.40102119, 1.01643511, -0.25468422, -171.10420227, 163.57560730, 227.65763855, -0.08011036, -0.72812814, -0.68074352, -0.10127087, 0.09960338, -0.05683584, 0.00000000, 0.00000000, 0.00000000, 0.22483693, -0.33026747, -0.69682302, 0.59565882
424169100.688524, -0.19085693, -0.49438477, -0.76441956, 0.61492709, 1.33910584, -0.36228871, -171.10420227, 163.57560730, 227.65763855, -0.06819016, -0.73196846, -0.67791760, -0.13235611, 0.14247565, -0.04927050, 0.00000000, 0.00000000, 0.00000000, 0.23186169, -0.32753832, -0.69527873, 0.59627703
424169100.704202, -0.19085693, -0.49438477, -0.76441956, 0.85832963, 1.65667022, -0.51506228, -172.13082886, 165.97105408, 226.65913391, -0.05150107, -0.73781204, -0.67303866, -0.13552591, 0.21818922, -0.11107999, 0.00000000, 0.00000000, 0.00000000, 0.24186562, -0.32400878, -0.69305210, 0.59682336
424169100.720615, -0.29487610, -0.51997375, -0.71455383, 1.04636105, 2.00859391, -0.82496368, -174.01296997, 163.40449524, 225.49421692, -0.02975614, -0.74611443, -0.66515249, -0.19830172, 0.23186269, -0.13016610, 0.00000000, 0.00000000, 0.00000000, 0.25514133, -0.31988536, -0.69010240, 0.59693796
424169100.735861, -0.24520874, -0.53108215, -0.57934570, 1.03693852, 2.17291814, -1.06673317, -174.01296997, 163.40449524, 225.16139221, -0.00218750, -0.75674087, -0.65371132, -0.29268861, 0.23676708, -0.06084250, 0.00000000, 0.00000000, 0.00000000, 0.27167704, -0.31517600, -0.68703451, 0.59568385
424169100.751808, -0.18437195, -0.52067566, -0.57913208, 0.99920659, 2.05406339, -1.25765998, -174.69738770, 163.40449524, 223.83006287, 0.03140018, -0.76710081, -0.64075762, -0.27660891, 0.23601869, 0.06141192, 0.00000000, 0.00000000, 0.00000000, 0.29054545, -0.30855231, -0.68425646, 0.59344074
424169100.767408, -0.06864929, -0.43846130, -0.53643799, 0.93987589, 1.84088906, -1.43060167, -175.55290222, 165.28663635, 222.66514587, 0.06684379, -0.77613300, -0.62701631, -0.25121576, 0.25545737, 0.04788422, 0.00000000, 0.00000000, 0.00000000, 0.30939874, -0.30127109, -0.68235644, 0.58982865
424169100.783236, -0.06864929, -0.43846130, -0.53643799, 0.92087157, 2.01036838, -1.60138806, -176.57952881, 163.23339844, 222.99797058, 0.10199968, -0.78374463, -0.61265033, -0.22829668, 0.31644422, 0.07706684, 0.00000000, 0.00000000, 0.00000000, 0.32721413, -0.29428854, -0.68161360, 0.58457512
424169100.799484, -0.01492310, -0.49327087, -0.65283203, 1.15596052, 2.74549351, -1.81361803, -176.92173767, 163.23339844, 221.66664124, 0.13939913, -0.78946543, -0.59775597, -0.16585787, 0.32240915, 0.00438744, 0.00000000, 0.00000000, 0.00000000, 0.34524783, -0.28622709, -0.68141134, 0.57840865
424169100.814777, 0.12678528, -0.45649719, -0.90507507, 1.86744078, 3.58189201, -1.83645543, -177.09284973, 165.11553955, 219.17039490, 0.18368863, -0.79472601, -0.57850587, -0.19861172, 0.30145511, -0.07432613, 0.00000000, 0.00000000, 0.00000000, 0.36693299, -0.27587539, -0.68007302, 0.57162369
424169100.830324, 0.20402527, -0.52526855, -0.83265686, 2.58997929, 4.03844810, -1.73749290, -180.85713196, 165.11553955, 217.83906555, 0.23645964, -0.80270237, -0.54749954, -0.10967436, 0.34620520, -0.35757557, 0.00000000, 0.00000000, 0.00000000, 0.39579005, -0.26381903, -0.67482034, 0.56424043
424169100.846994, 0.08872986, -0.52827454, -0.65995789, 3.19091573, 4.40240582, -1.61923150, -182.56817627, 164.08891296, 214.51074219, 0.29111630, -0.81486082, -0.50125164, -0.08709102, 0.28959224, -0.33140522, 0.00000000, 0.00000000, 0.00000000, 0.43032589, -0.25336498, -0.66512912, 0.55518381
424169100.862617, 0.15834045, -0.48287964, -0.38131714, 3.66977526, 4.23953221, -1.67514750, -182.56817627, 164.08891296, 214.51074219, 0.34448323, -0.82896858, -0.44061595, -0.19671711, 0.27769905, -0.30802602, 0.00000000, 0.00000000, 0.00000000, 0.46902031, -0.24436034, -0.65096004, 0.54457231
424169100.878189, 0.15834045, -0.48287964, -0.38131714, 3.99801599, 3.85078713, -1.77132304, -183.42370605, 164.94442749, 214.67715454, 0.39359269, -0.84188479, -0.36920828, -0.30785355, 0.34817144, -0.16509347, 0.00000000, 0.00000000, 0.00000000, 0.50888809, -0.23754740, -0.63457109, 0.53096485
424169100.893869, 0.35003662, -0.51683044, -0.00738525, 3.89115825, 3.32881288, -1.90103310, -185.64805603, 162.72007751, 211.84808350, 0.43761951, -0.85089976, -0.29061791, -0.27927905, 0.36802012, -0.09069922, 0.00000000, 0.00000000, 0.00000000, 0.54804359, -0.23310783, -0.61770093, 0.51357037
424169100.910313, 0.47964478, -0.55291748, 0.05146790, 3.67108527, 3.16493153, -1.98288216, -183.93701172, 161.00903320, 208.85258484, 0.47623864, -0.85328388, -0.21237546, -0.12620200, 0.33645347, 0.20499021, 0.00000000, 0.00000000, 0.00000000, 0.58389430, -0.22995592, -0.60217867, 0.49352667
424169100.925458, 0.52073669, -0.56547546, 0.09881592, 3.41431313, 3.53101791, -1.90146959, -183.42370605, 160.49572754, 207.35482788, 0.51120526, -0.84843743, -0.13719727, -0.03156047, 0.29551998, 0.18866517, 0.00000000, 0.00000000, 0.00000000, 0.61665597, -0.22613442, -0.58773421, 0.47240568
424169100.941837, 0.39021301, -0.58654785, 0.01675415, 3.08390219, 3.95787816, -1.68247279, -182.56817627, 159.29798889, 204.85858154, 0.54209000, -0.83798778, -0.06256960, -0.02409988, 0.28862557, 0.12307069, 0.00000000, 0.00000000, 0.00000000, 0.64820793, -0.22032176, -0.57179068, 0.45204006
424169100.957005, 0.39021301, -0.58654785, 0.01675415, 2.83704287, 3.71256800, -1.55180666, -182.39707947, 158.78468323, 202.36235046, 0.56634825, -0.82405931, 0.01326160, -0.09355468, 0.24514088, 0.03454419, 0.00000000, 0.00000000, 0.00000000, 0.67953278, -0.21181594, -0.55207966, 0.43425483
424169100.972876, 0.32444763, -0.54319763, -0.13131714, 2.54289007, 2.42718558, -1.47042418, -182.39707947, 158.44247437, 202.02951050, 0.58356988, -0.80754590, 0.08553243, -0.19335686, 0.22099806, -0.06877828, 0.00000000, 0.00000000, 0.00000000, 0.70826854, -0.20278533, -0.53161254, 0.41787785
424169100.988982, 0.47808838, -0.49371338, -0.06964111, 2.63679793, 0.86266153, -1.26046216, -183.08149719, 157.41584778, 201.03100586, 0.59684658, -0.78890067, 0.14632130, -0.27239892, 0.24570303, -0.27763844, 0.00000000, 0.00000000, 0.00000000, 0.73137065, -0.19559555, -0.51540656, 0.40149150
424169101.004199, 0.76603699, -0.60527039, 0.27957153, 2.73354498, -0.19738551, -1.20266278, -183.08149719, 157.41584778, 201.03100586, 0.60960776, -0.76943457, 0.19065376, -0.13151938, 0.27572116, -0.26029488, 0.00000000, 0.00000000, 0.00000000, 0.74674505, -0.19416158, -0.50780186, 0.38315843
424169101.020311, 1.00076294, -0.65281677, 0.37773132, 3.01472312, 0.07621221, -1.25800992, -184.10812378, 156.04701233, 201.36384583, 0.62356871, -0.74903685, 0.22384341, 0.00434572, 0.23333554, -0.13050540, 0.00000000, 0.00000000, 0.00000000, 0.75687145, -0.19765453, -0.50661046, 0.36252466
424169101.035826, 1.00076294, -0.65281677, 0.37773132, 3.26843529, 0.50381069, -1.15976831, -183.59480286, 153.82266235, 200.86459351, 0.63814008, -0.72593546, 0.25650534, 0.27071920, 0.09928750, 0.06627910, 0.00000000, 0.00000000, 0.00000000, 0.76643576, -0.20206158, -0.50598833, 0.34018105
424169101.052123, 0.94183350, -0.77796936, 0.43022156, 3.31341874, 0.79463640, -0.89955297, -184.79254150, 153.99375916, 198.70118713, 0.64977354, -0.69988573, 0.29657087, 0.34795290, -0.03847179, 0.14364518, 0.00000000, 0.00000000, 0.00000000, 0.77818614, -0.20666825, -0.50154522, 0.31649163
424169101.068253, 0.81973267, -0.64680481, 0.41105652, 3.25568540, 0.56086758, -0.62123532, -184.10812378, 150.91389465, 199.69967651, 0.65672725, -0.67324549, 0.33977911, 0.28510624, -0.10472388, 0.09044246, 0.00000000, 0.00000000, 0.00000000, 0.79057862, -0.21183720, -0.49397170, 0.29343212
424169101.083349, 0.73629761, -0.58438110, 0.56111145, 3.21294273, 0.46268243, -0.29976195, -182.56817627, 151.42720032, 197.53627014, 0.66038555, -0.64745051, 0.38039291, 0.15934710, 0.00064568, 0.03066362, 0.00000000, 0.00000000, 0.00000000, 0.80148609, -0.21866982, -0.48599767, 0.27131128
424169101.099749, 0.70780945, -0.53988647, 0.60536194, 2.96650073, 0.04516748, -0.07885620, -182.91038513, 150.74278259, 197.20343018, 0.66094565, -0.62310475, 0.41820008, 0.10612894, 0.02196951, 0.06069703, 0.00000000, 0.00000000, 0.00000000, 0.81079294, -0.22740899, -0.47778145, 0.25024957
424169101.114966, 0.70780945, -0.53988647, 0.60536194, 2.88945149, -0.48518214, -0.02450135, -183.42370605, 149.54505920, 196.70417786, 0.66085708, -0.60099989, 0.44951868, 0.06791796, 0.03238112, 0.19017552, 0.00000000, 0.00000000, 0.00000000, 0.81746566, -0.23771672, -0.47125690, 0.23055929
424169101.130805, 0.77857971, -0.52915955, 0.72389221, 2.63930423, -1.03837823, -0.04333176, -182.91038513, 150.40057373, 197.53627014, 0.66306806, -0.57968438, 0.47361031, 0.06666825, 0.07986749, 0.14667472, 0.00000000, 0.00000000, 0.00000000, 0.82152256, -0.24880884, -0.46752929, 0.21121364
424169101.147383, 0.79856873, -0.58020020, 0.72036743, 2.35901531, -1.26792673, -0.03728692, -184.79254150, 148.86064148, 197.70268250, 0.67010599, -0.55866498, 0.48872420, 0.10847370, 0.02950545, 0.23516801, 0.00000000, 0.00000000, 0.00000000, 0.82259918, -0.26017819, -0.46790474, 0.19158041
424169101.162403, 0.83807373, -0.54788208, 0.74111938, 2.07603740, -1.02032972, -0.07684178, -184.79254150, 148.86064148, 197.70268250, 0.67959988, -0.53951806, 0.49705556, 0.11896882, -0.04068212, 0.22331189, 0.00000000, 0.00000000, 0.00000000, 0.82169608, -0.27081973, -0.47061495, 0.17318717
424169101.178130, 0.87681580, -0.62356567, 0.86538696, 1.85886593, -0.70297493, -0.10290668, -184.96363831, 149.37394714, 198.86759949, 0.68899447, -0.52201724, 0.50277692, 0.12800689, -0.05630610, 0.25967425, 0.00000000, 0.00000000, 0.00000000, 0.82032737, -0.28009189, -0.47339948, 0.15653906
424169101.194070, 0.87681580, -0.62356567, 0.86538696, 1.53866049, -0.14125167, -0.15389982, -185.47695923, 147.14959717, 199.36685181, 0.69613671, -0.50569791, 0.50957167, 0.16854833, -0.04366428, 0.27657640, 0.00000000, 0.00000000, 0.00000000, 0.81972921, -0.28780176, -0.47442885, 0.14188526
424169101.210153, 0.79621887, -0.56225586, 0.90180969, 1.04909452, -0.19849898, -0.40903544, -185.81916809, 147.14959717, 199.36685181, 0.69957936, -0.49138185, 0.51877993, 0.12254897, -0.07014158, 0.23031978, 0.00000000, 0.00000000, 0.00000000, 0.82052625, -0.29347340, -0.47289979, 0.13029128
424169101.226381, 0.89053345, -0.50807190, 1.04254150, 0.29376478, -0.02099130, -0.30687738, -183.76591492, 147.14959717, 198.36834717, 0.70410162, -0.47661760, 0.52638066, 0.09211728, -0.08563826, 0.37542903, 0.00000000, 0.00000000, 0.00000000, 0.82190500, -0.29607854, -0.47158673, 0.12006508
424169101.241261, 1.05871582, -0.49981689, 0.86256409, -0.06669328, 0.13601776, -0.14972984, -183.93701172, 145.60966492, 199.53326416, 0.70776242, -0.46912491, 0.52819896, 0.18277101, -0.03894699, 0.51434255, 0.00000000, 0.00000000, 0.00000000, 0.82248892, -0.29599232, -0.47178682, 0.11540237
424169101.257245, 1.00030518, -0.47048950, 0.75451660, -0.19612610, 0.35982183, -0.12523009, -184.10812378, 146.46517944, 199.03401184, 0.70770240, -0.46713161, 0.53004283, 0.30126977, -0.01466464, 0.38214287, 0.00000000, 0.00000000, 0.00000000, 0.82342202, -0.29495351, -0.47091483, 0.11496879
424169101.273016, 1.00030518, -0.47048950, 0.75451660, -0.21834432, 0.55006074, 0.04182122, -183.42370605, 145.78076172, 197.70268250, 0.70632470, -0.46744114, 0.53160536, 0.33687297, -0.03736537, 0.25208607, 0.00000000, 0.00000000, 0.00000000, 0.82451953, -0.29320677, -0.46972636, 0.11642371
424169101.288847, 1.02012634, -0.48803711, 0.67860413, -0.24308642, 0.65352881, 0.52397375, -184.45033264, 148.86064148, 196.70417786, 0.70228481, -0.46900970, 0.53556138, 0.30435279, -0.00491302, 0.24860308, 0.00000000, 0.00000000, 0.00000000, 0.82618075, -0.29190075, -0.46700736, 0.11884210
424169101.305019, 0.79191589, -0.44329834, 0.45130920, 0.09019754, 0.40706257, 0.98423350, -184.45033264, 148.86064148, 196.70417786, 0.69412279, -0.47536340, 0.54057676, 0.32600358, -0.01267371, 0.13802737, 0.00000000, 0.00000000, 0.00000000, 0.82744254, -0.29262128, -0.46310458, 0.12347377
424169101.320490, 0.44001770, -0.30848694, 0.27368164, 0.69136168, -0.57069705, 1.20579465, -187.01689148, 146.97850037, 197.53627014, 0.68310970, -0.48522305, 0.54582018, 0.10880618, 0.04192473, -0.09451099, 0.00000000, 0.00000000, 0.00000000, 0.82723869, -0.29763442, -0.45898861, 0.12813802
424169101.336099, 0.53614807, -0.30828857, 0.57351685, 1.34015992, -1.52539529, 1.04182942, -184.96363831, 146.63629150, 199.20042419, 0.67550319, -0.49389070, 0.54751015, -0.09801909, 0.10297578, -0.22812845, 0.00000000, 0.00000000, 0.00000000, 0.82429102, -0.30708206, -0.45781684, 0.12902968
424169101.352555, 0.53614807, -0.30828857, 0.57351685, 1.64643596, -1.50183057, 0.39713724, -184.96363831, 148.00511169, 199.53326416, 0.67741728, -0.49633643, 0.54291427, -0.23421052, 0.21533059, -0.11220445, 0.00000000, 0.00000000, 0.00000000, 0.81799743, -0.31990211, -0.46205074, 0.12268647
424169101.367729, 0.75946045, -0.51658630, 0.74382019, 1.68945400, -0.68889106, -0.05090126, -185.64805603, 146.29408264, 200.86459351, 0.68600219, -0.49042010, 0.53748399, -0.08985659, 0.10360981, 0.20911327, 0.00000000, 0.00000000, 0.00000000, 0.81168781, -0.33151909, -0.46790943, 0.11098990
424169101.384866, 0.94160461, -0.56800842, 0.80776978, 1.24189380, -0.76526413, 0.03975487, -186.67468262, 145.95187378, 199.86610413, 0.69298643, -0.47656021, 0.54098076, 0.06647404, -0.04002609, 0.20283942, 0.00000000, 0.00000000, 0.00000000, 0.80970657, -0.33891836, -0.46894203, 0.09799481
424169101.399427, 0.80328369, -0.44975281, 0.80404663, 0.74523397, -0.26092827, 0.37237037, -184.10812378, 146.46517944, 198.36834717, 0.69975263, -0.46447080, 0.54278278, 0.24185199, -0.10353763, 0.26498699, 0.00000000, 0.00000000, 0.00000000, 0.80781028, -0.34472298, -0.47017710, 0.08684532
424169101.415821, 0.83294678, -0.31237793, 0.65916443, 0.69190310, 0.30063414, 0.72453508, -185.47695923, 147.14959717, 198.03552246, 0.70146835, -0.46015492, 0.54424220, 0.10181532, 0.01040212, 0.25980443, 0.00000000, 0.00000000, 0.00000000, 0.80599269, -0.34999555, -0.47041232, 0.08118590
424169101.430896, 0.83294678, -0.31237793, 0.65916443, 0.67959876, 0.52324271, 1.23091998, -184.45033264, 146.80738831, 198.03552246, 0.69580364, -0.46110281, 0.55067366, 0.10914325, 0.08253226, 0.17727740, 0.00000000, 0.00000000, 0.00000000, 0.80520440, -0.35634633, -0.46726560, 0.07953636
424169101.446995, 0.57104492, -0.41459656, 1.06491089, -0.10127948, 0.99815730, 1.27027191, -183.93701172, 148.00511169, 199.53326416, 0.68470603, -0.46618146, 0.56022537, 0.14351051, 0.07041426, 0.18267930, 0.00000000, 0.00000000, 0.00000000, 0.80421397, -0.36517472, -0.46204085, 0.08003479
424169101.462219, 0.47601318, -0.39369202, 0.60490417, -0.30285761, 0.94257900, 0.78190170, -183.93701172, 148.00511169, 199.53326416, 0.66661417, -0.47951898, 0.57068998, -0.09556925, 0.06492244, 0.49422088, 0.00000000, 0.00000000, 0.00000000, 0.80354150, -0.37371923, -0.45512330, 0.08670512
424169101.478544, 0.27577209, -0.40693665, 0.20843506, -0.14830372, 0.23328013, 0.41203310, -185.47695923, 148.17622375, 198.03552246, 0.65072864, -0.49193436, 0.57840538, -0.17471546, 0.09824235, 0.02649877, 0.00000000, 0.00000000, 0.00000000, 0.80384394, -0.37820314, -0.44927330, 0.09460867
424169101.494062, 0.40328979, -0.41778564, 0.14466858, 0.56012856, -0.08749043, -0.06312091, -186.16136169, 149.20285034, 199.36685181, 0.64188224, -0.49970701, 0.58161855, -0.36611012, 0.09277037, -0.37318346, 0.00000000, 0.00000000, 0.00000000, 0.80371754, -0.38058819, -0.44642534, 0.09947436
424169101.511355, 0.71862793, -0.42166138, 0.58703613, 1.23747615, -0.16250263, -0.27145814, -184.62142944, 147.66291809, 199.86610413, 0.64109910, -0.49840814, 0.58359337, -0.36058155, 0.10706598, -0.51392174, 0.00000000, 0.00000000, 0.00000000, 0.80356259, -0.38220918, -0.44560645, 0.09817430
424169101.526158, 0.71862793, -0.42166138, 0.58703613, 1.30858628, -0.14609516, -0.00624138, -184.10812378, 146.12297058, 198.70118713, 0.64389491, -0.48657855, 0.59045804, -0.05006859, 0.09226092, -0.24071133, 0.00000000, 0.00000000, 0.00000000, 0.80455802, -0.38459773, -0.44338661, 0.09043946
424169101.543058, 0.90823364, -0.46963501, 0.86595154, 1.19109800, 0.35326645, 0.23364605, -183.08149719, 146.80738831, 198.03552246, 0.64624178, -0.47348869, 0.59848142, 0.07238616, 0.05182732, -0.01144530, 0.00000000, 0.00000000, 0.00000000, 0.80509100, -0.38867622, -0.44061646, 0.08134137
424169101.557427, 0.93853760, -0.47549438, 0.81802368, 1.10324404, 0.57703111, 0.47971654, -183.59480286, 146.63629150, 196.53776550, 0.64334249, -0.46358621, 0.60926038, 0.26489112, -0.00604879, 0.25669116, 0.00000000, 0.00000000, 0.00000000, 0.80585306, -0.39399370, -0.43565951, 0.07463644
424169101.573252, 0.73124695, -0.40881348, 0.74386597, 1.01792355, 0.86562083, 0.63960447, -183.93701172, 147.66291809, 198.20193481, 0.63535714, -0.45705897, 0.62242943, 0.30318043, -0.01843543, 0.19559425, 0.00000000, 0.00000000, 0.00000000, 0.80692818, -0.40010203, -0.42871375, 0.07063855
424169101.589473, 0.51080322, -0.33500671, 0.67134094, 0.88977437, 0.89494943, 0.74001444, -183.59480286, 149.03173828, 195.87210083, 0.62309349, -0.45287672, 0.63769680, 0.21398844, -0.01788745, 0.15849155, 0.00000000, 0.00000000, 0.00000000, 0.80816744, -0.40707959, -0.42005377, 0.06860340
424169101.605043, 0.51080322, -0.33500671, 0.67134094, 0.70392621, 0.83068708, 0.75446049, -183.76591492, 146.80738831, 197.36985779, 0.60863423, -0.45052007, 0.65314323, 0.01621320, 0.09851508, 0.03936167, 0.00000000, 0.00000000, 0.00000000, 0.80927189, -0.41430738, -0.41085633, 0.06801080
424169101.620477, 0.42749023, -0.33280945, 0.56797791, 0.68388938, 0.97558621, 0.76248992, -183.76591492, 146.80738831, 197.36985779, 0.59442252, -0.45002288, 0.66643929, -0.08361927, 0.11501616, 0.00490166, 0.00000000, 0.00000000, 0.00000000, 0.80980240, -0.42123594, -0.40261327, 0.06843183
424169101.636719, 0.43391418, -0.33486938, 0.49848938, 0.84035010, 1.20750494, 0.84248329, -184.27922058, 148.68952942, 198.20193481, 0.57920557, -0.45026147, 0.67954803, -0.15171531, 0.11745204, -0.11157013, 0.00000000, 0.00000000, 0.00000000, 0.81042647, -0.42776506, -0.39415940, 0.06974492
424169101.652201, 0.52398682, -0.28712463, 0.55004883, 1.12970574, 0.91665206, 0.87672728, -182.39707947, 147.14959717, 196.03851318, 0.56101459, -0.44930646, 0.69525993, -0.12710041, 0.11443707, -0.19677053, 0.00000000, 0.00000000, 0.00000000, 0.81149715, -0.43485897, -0.38380350, 0.07116825
424169101.668470, 0.51408386, -0.45266724, 0.51753235, 0.84103133, 1.19396942, 0.92024440, -184.27922058, 146.29408264, 196.20494080, 0.54244715, -0.44608408, 0.71187085, -0.05361660, 0.20752817, -0.32080331, 0.00000000, 0.00000000, 0.00000000, 0.81230131, -0.44283404, -0.37279201, 0.07134920
424169101.684127, 0.51408386, -0.45266724, 0.51753235, 0.98834915, 1.28913375, 0.96177852, -181.37045288, 147.14959717, 194.70718384, 0.52414972, -0.44250405, 0.72763813, -0.02550775, -0.04318321, -0.05294025, 0.00000000, 0.00000000, 0.00000000, 0.81261740, -0.45107874, -0.36207660, 0.07128443
424169101.699648, 0.54457092, -0.40496826, 0.60217285, 1.12152584, 1.24688670, 1.04393465, -180.00161743, 146.80738831, 193.70869446, 0.50240767, -0.44018653, 0.74419242, 0.01167621, -0.01248070, -0.22666007, 0.00000000, 0.00000000, 0.00000000, 0.81326204, -0.45902185, -0.35010146, 0.07302572
424169101.716008, 0.52046204, -0.44691467, 0.64816284, 0.91821134, 1.28958356, 1.16356944, -181.19934082, 146.63629150, 193.87510681, 0.48022041, -0.43497345, 0.76169974, 0.06435050, 0.03000519, -0.15952685, 0.00000000, 0.00000000, 0.00000000, 0.81353335, -0.46798861, -0.33730944, 0.07329724
424169101.731203, 0.38265991, -0.34326172, 0.67953491, 1.14589324, 1.49327837, 1.27293215, -180.17272949, 149.03173828, 192.87660217, 0.45704493, -0.43182978, 0.77758151, 0.06341710, -0.01508490, -0.12941866, 0.00000000, 0.00000000, 0.00000000, 0.81314886, -0.47705312, -0.32496474, 0.07488105
424169101.746949, 0.29031372, -0.24763489, 0.70080566, 1.07690005, 1.51810888, 1.26331574, -180.51493835, 146.97850037, 195.53927612, 0.43075505, -0.42761809, 0.79472816, 0.01564084, 0.02956205, -0.15895547, 0.00000000, 0.00000000, 0.00000000, 0.81253995, -0.48697323, -0.31104668, 0.07671947
424169101.763859, 0.29031372, -0.24763489, 0.70080566, 1.17646393, 1.53549426, 1.14127345, -181.02824402, 147.83401489, 192.71018982, 0.40290979, -0.42199939, 0.81214541, -0.06579737, 0.13897938, -0.07915899, 0.00000000, 0.00000000, 0.00000000, 0.81182530, -0.49700343, -0.29623864, 0.07854901
424169101.778624, 0.31431580, -0.25292969, 0.73985291, 1.26797334, 1.40426806, 0.95148887, -181.02824402, 147.83401489, 192.71018982, 0.37487081, -0.41520679, 0.82889998, -0.10068563, 0.17362966, -0.14765608, 0.00000000, 0.00000000, 0.00000000, 0.81120997, -0.50634809, -0.28122812, 0.08037879
424169101.794733, 0.34718323, -0.25521851, 0.82878113, 1.21652772, 1.16165276, 0.74322195, -178.63278198, 146.12297058, 194.04151917, 0.34895855, -0.40453377, 0.84532857, -0.03464275, 0.15160409, -0.10547565, 0.00000000, 0.00000000, 0.00000000, 0.81098298, -0.51475322, -0.26620436, 0.08044230
424169101.810238, 0.35079956, -0.25291443, 0.98037720, 1.20580744, 0.89080741, 0.53607249, -178.46168518, 148.34732056, 192.87660217, 0.32685474, -0.39267555, 0.85963476, 0.02032850, 0.13745703, -0.03085363, 0.00000000, 0.00000000, 0.00000000, 0.81090243, -0.52178025, -0.25270426, 0.07951841
424169101.826411, 0.31576538, -0.23124695, 1.14207458, 0.97499899, 0.47532179, 0.33934212, -177.60615540, 145.09634399, 192.71018982, 0.30962235, -0.37927267, 0.87194395, 0.05729050, 0.12748741, 0.03590823, 0.00000000, 0.00000000, 0.00000000, 0.81097616, -0.52753165, -0.24101933, 0.07705654
424169101.843189, 0.31576538, -0.23124695, 1.14207458, 0.82049916, 0.52154175, 0.31522373, -178.11947632, 145.60966492, 191.21244812, 0.29860032, -0.36663511, 0.88114500, 0.02584731, 0.12987973, 0.18214844, 0.00000000, 0.00000000, 0.00000000, 0.81099142, -0.53185095, -0.23238906, 0.07363975
424169101.858160, 0.33676147, -0.23594666, 1.16937256, 0.64279760, 0.61413427, 0.40918938, -176.57952881, 145.43855286, 192.04452515, 0.29014885, -0.35647810, 0.88810867, 0.03805242, 0.11879195, 0.26856858, 0.00000000, 0.00000000, 0.00000000, 0.81092964, -0.53520785, -0.22566508, 0.07085859
424169101.873269, 0.27766418, -0.19448853, 1.02696228, 0.50681127, 0.73797712, 0.49712908, -176.06622314, 145.26745605, 190.21394348, 0.27956909, -0.34822258, 0.89475256, 0.05719238, 0.11227593, 0.27462000, 0.00000000, 0.00000000, 0.00000000, 0.81071614, -0.53862382, -0.21861016, 0.06952206
424169101.890000, 0.14418030, -0.26089478, 0.84742737, 0.54272640, 0.52559828, 0.34847303, -178.11947632, 145.26745605, 191.21244812, 0.26703095, -0.34302625, 0.90057063, 0.01063324, 0.14853774, 0.12639165, 0.00000000, 0.00000000, 0.00000000, 0.81005014, -0.54231364, -0.21169236, 0.07000737
424169101.904782, 0.07926941, -0.18280029, 0.88589478, 0.60677569, 0.35919971, 0.10893128, -177.09284973, 145.26745605, 191.87811279, 0.25586569, -0.33748624, 0.90588951, -0.05475484, 0.12895963, 0.00130654, 0.00000000, 0.00000000, 0.00000000, 0.80945418, -0.54564520, -0.20528960, 0.07008159
424169101.920871, 0.07926941, -0.18280029, 0.88589478, 0.70769618, 0.38106213, -0.04328249, -177.09284973, 145.26745605, 191.87811279, 0.24919209, -0.33004451, 0.91048002, -0.14177021, 0.07308652, -0.04907563, 0.00000000, 0.00000000, 0.00000000, 0.80952456, -0.54764041, -0.20019724, 0.06841814
424169101.936648, 0.09289551, -0.16352844, 0.95364380, 0.82220625, 0.62088804, -0.04390274, -177.77726746, 146.63629150, 192.54377747, 0.24387637, -0.32054067, 0.91530216, -0.16041079, 0.16708302, 0.01249328, 0.00000000, 0.00000000, 0.00000000, 0.81034823, -0.54862265, -0.19499830, 0.06576167
424169101.952420, 0.16825867, -0.22917175, 0.92868042, 0.88935386, 0.84948793, -0.01377973, -177.94836426, 145.09634399, 193.04302979, 0.23645918, -0.30908176, 0.92117071, -0.14356367, 0.14555331, 0.03247306, 0.00000000, 0.00000000, 0.00000000, 0.81168437, -0.54932127, -0.18827864, 0.06297450
424169101.968268, 0.29492188, -0.30918884, 0.91381836, 0.99048793, 1.01298685, 0.09009900, -177.60615540, 143.72750854, 191.04602051, 0.22490430, -0.29657662, 0.92814887, -0.05664562, 0.06740487, 0.00053153, 0.00000000, 0.00000000, 0.00000000, 0.81328347, -0.55013129, -0.17948148, 0.06092578
424169101.984113, 0.32264709, -0.24047852, 1.15368652, 1.03173391, 0.66643689, 0.14759319, -175.72401428, 142.18757629, 190.54678345, 0.21035615, -0.28296381, 0.93577868, 0.01968536, -0.00361151, 0.00007335, 0.00000000, 0.00000000, 0.00000000, 0.81473216, -0.55145340, -0.16914395, 0.05916901
424169101.999987, 0.32264709, -0.24047852, 1.15368652, 0.70834253, 0.56275710, 0.27400545, -173.67076111, 141.84536743, 190.54678345, 0.19771996, -0.26795381, 0.94292504, 0.15001258, -0.06807524, 0.03629252, 0.00000000, 0.00000000, 0.00000000, 0.81564866, -0.55333514, -0.15931560, 0.05617858
424169102.016066, 0.21791077, -0.13252258, 1.15742493, 0.57500205, 0.56415339, 0.38320624, -173.67076111, 141.16094971, 189.88111877, 0.18836829, -0.25681952, 0.94792461, 0.07953028, 0.11430244, 0.23360917, 0.00000000, 0.00000000, 0.00000000, 0.81559693, -0.55566534, -0.15213027, 0.05379648
424169102.031403, 0.12367249, -0.18798828, 1.03416443, 0.45557072, 0.60458950, 0.39892901, -174.69738770, 143.89862061, 191.21244812, 0.17839324, -0.24870032, 0.95201051, 0.03951752, 0.11617774, 0.20541443, 0.00000000, 0.00000000, 0.00000000, 0.81487453, -0.55855595, -0.14563506, 0.05277479
424169102.047192, 0.06210327, -0.16363525, 0.96382141, 0.50517103, 0.59439172, 0.30267438, -175.55290222, 144.06971741, 191.04602051, 0.16775659, -0.24275438, 0.95547265, -0.04408411, 0.05476611, 0.07869175, 0.00000000, 0.00000000, 0.00000000, 0.81388146, -0.56154546, -0.13953230, 0.05286208
424169102.063072, 0.02317810, -0.15635681, 0.94436646, 0.58988965, 0.71944844, 0.21369977, -175.03959656, 143.89862061, 191.87811279, 0.15755999, -0.23656595, 0.95875514, -0.09545673, 0.07293070, 0.00506628, 0.00000000, 0.00000000, 0.00000000, 0.81312481, -0.56409716, -0.13353488, 0.05282871
424169102.079129, 0.02317810, -0.15635681, 0.94436646, 0.64886455, 0.69966195, 0.08479398, -175.03959656, 143.89862061, 191.87811279, 0.14619353, -0.22879955, 0.96243346, -0.10163787, 0.07119152, -0.00170961, 0.00000000, 0.00000000, 0.00000000, 0.81286358, -0.56610030, -0.12655659, 0.05259929
424169102.094746, 0.01383972, -0.17037964, 0.95678711, 0.74715331, 0.63405631, -0.05726862, -174.52629089, 143.72750854, 190.04753113, 0.13487868, -0.21974693, 0.96618789, -0.11809401, 0.05785118, -0.00908034, 0.00000000, 0.00000000, 0.00000000, 0.81314489, -0.56735291, -0.11919002, 0.05195958
424169102.110451, 0.04180908, -0.22583008, 1.03311157, 0.74869102, 0.40430221, -0.21472109, -172.47303772, 142.70088196, 191.71170044, 0.12465502, -0.20906781, 0.96992362, -0.11081529, 0.03868816, -0.01313649, 0.00000000, 0.00000000, 0.00000000, 0.81398236, -0.56779796, -0.11176842, 0.05045812
424169102.127346, 0.07357788, -0.19581604, 1.13156128, 0.60359454, 0.28894632, -0.31127213, -172.98634338, 142.18757629, 191.21244812, 0.11774256, -0.19707105, 0.97329324, -0.07593348, -0.02875904, 0.05981835, 0.00000000, 0.00000000, 0.00000000, 0.81534576, -0.56732521, -0.10530836, 0.04757667
424169102.142363, 0.15574646, -0.25732422, 1.20097351, 0.51715526, 0.32671927, -0.31969012, -172.98634338, 138.76548767, 189.21545410, 0.11365978, -0.18681520, 0.97579789, -0.04008190, -0.00900084, 0.15576339, 0.00000000, 0.00000000, 0.00000000, 0.81703011, -0.56600420, -0.10051719, 0.04469168
424169102.158615, 0.23135376, -0.19564819, 1.21353149, 0.34087690, 0.35971051, -0.23601573, -171.95971680, 140.47653198, 189.21545410, 0.10991120, -0.17793162, 0.97788543, -0.00709748, -0.07103078, 0.19376071, 0.00000000, 0.00000000, 0.00000000, 0.81881575, -0.56434339, -0.09627027, 0.04230051
424169102.173643, 0.23135376, -0.19564819, 1.21353149, 0.17628023, 0.40119457, -0.08922788, -172.81524658, 140.98985291, 190.71319580, 0.10513268, -0.17143202, 0.97957039, 0.11833228, -0.05590868, 0.24249075, 0.00000000, 0.00000000, 0.00000000, 0.82033280, -0.56288481, -0.09231309, 0.04114717
424169102.189723, 0.16497803, -0.18981934, 1.08859253, 0.12797102, 0.49075321, 0.00603739, -173.15745544, 142.01647949, 190.04753113, 0.09953406, -0.16791625, 0.98076355, 0.13181970, -0.02773195, 0.23276797, 0.00000000, 0.00000000, 0.00000000, 0.82120942, -0.56213597, -0.08892029, 0.04136926
424169102.205192, 0.10345459, -0.14430237, 0.98020935, 0.19257984, 0.56175655, 0.03117443, -173.32855225, 141.84536743, 191.21244812, 0.09241198, -0.16602559, 0.98178184, 0.07256605, -0.02379374, 0.10681072, 0.00000000, 0.00000000, 0.00000000, 0.82156702, -0.56206631, -0.08539791, 0.04261796
424169102.220936, 0.05885315, -0.09564209, 0.92192078, 0.25512817, 0.56709219, 0.00514736, -171.78862000, 142.35868835, 190.04753113, 0.08395895, -0.16357854, 0.98295116, 0.01949565, 0.01927617, -0.00274180, 0.00000000, 0.00000000, 0.00000000, 0.82175166, -0.56231644, -0.08118016, 0.04397962
424169102.237085, 0.07345581, -0.12849426, 0.92033386, 0.38768275, 0.52626487, -0.06281998, -171.78862000, 142.35868835, 190.04753113, 0.07509049, -0.16018884, 0.98422605, 0.00752059, 0.04876916, -0.03883728, 0.00000000, 0.00000000, 0.00000000, 0.82201644, -0.56249623, -0.07651912, 0.04507538
424169102.252832, 0.07345581, -0.12849426, 0.92033386, 0.46702445, 0.39221385, -0.15268515, -171.44641113, 142.35868835, 191.04602051, 0.06652523, -0.15426421, 0.98578745, -0.01577449, 0.04907012, -0.07862195, 0.00000000, 0.00000000, 0.00000000, 0.82257945, -0.56236713, -0.07124398, 0.04506170
424169102.268574, 0.11730957, -0.14241028, 1.05105591, 0.50054379, 0.34987199, -0.17515610, -171.27529907, 139.79211426, 191.54527283, 0.05973790, -0.14735454, 0.98727810, 0.01371791, 0.01886029, -0.06694423, 0.00000000, 0.00000000, 0.00000000, 0.82343827, -0.56177260, -0.06640753, 0.04417009
424169102.284569, 0.15437317, -0.10317993, 1.20300293, 0.44172814, 0.37057620, -0.08696899, -170.59088135, 139.79211426, 190.87960815, 0.05567839, -0.13940366, 0.98866910, 0.06163118, -0.00300662, 0.06238684, 0.00000000, 0.00000000, 0.00000000, 0.82448625, -0.56085377, -0.06239909, 0.04209296
424169102.300063, 0.10476685, -0.06648254, 1.22555542, 0.22042105, 0.31039169, -0.00997594, -170.59088135, 139.10769653, 188.88261414, 0.05016603, -0.13211770, 0.98996377, 0.10420714, 0.02893777, 0.21303914, 0.00000000, 0.00000000, 0.00000000, 0.82527408, -0.56027188, -0.05800234, 0.04066742
424169102.316501, 0.05126953, -0.05274963, 1.13981628, 0.01863840, 0.21132237, 0.02467232, -171.95971680, 139.44990540, 190.21394348, 0.04482929, -0.12762819, 0.99080843, 0.09228618, 0.05087649, 0.24645047, 0.00000000, 0.00000000, 0.00000000, 0.82556597, -0.56021875, -0.05450512, 0.04031090
424169102.331707, 0.05126953, -0.05274963, 1.13981628, -0.08503793, 0.12654303, 0.00238886, -171.10420227, 140.30543518, 189.04902649, 0.04110294, -0.12658927, 0.99110329, 0.02846188, 0.06489798, 0.20622338, 0.00000000, 0.00000000, 0.00000000, 0.82552965, -0.56040382, -0.05267070, 0.04091648
424169102.347381, 0.00129700, -0.05084229, 1.05372620, -0.08961644, 0.12273790, -0.05126106, -170.59088135, 140.13432312, 191.87811279, 0.03853087, -0.12769589, 0.99106467, 0.01273866, 0.07494625, 0.14875163, 0.00000000, 0.00000000, 0.00000000, 0.82543483, -0.56052624, -0.05192279, 0.04209159
424169102.363316, -0.01707458, -0.02493286, 0.96565247, -0.06574466, 0.13161342, -0.10556611, -171.95971680, 142.18757629, 190.21394348, 0.03733674, -0.12916566, 0.99091989, -0.03603974, 0.07832338, 0.06280632, 0.00000000, 0.00000000, 0.00000000, 0.82546891, -0.56041147, -0.05183847, 0.04304458
424169102.379152, -0.07221985, -0.04075623, 0.94236755, -0.07514775, 0.04006779, -0.19564753, -171.95971680, 142.18757629, 190.21394348, 0.03174307, -0.12442311, 0.99172139, -0.04881765, 0.09949025, -0.02606890, 0.00000000, 0.00000000, 0.00000000, 0.82597368, -0.56002514, -0.04814881, 0.04267329
424169102.394600, -0.05258179, -0.04693604, 0.91073608, -0.01496617, 0.03823394, -0.25091638, -172.98634338, 140.13432312, 190.87960815, 0.03104243, -0.12550230, 0.99160755, -0.06998286, 0.10423155, -0.02479542, 0.00000000, 0.00000000, 0.00000000, 0.82661727, -0.55902385, -0.04811138, 0.04337647
424169102.410566, -0.05258179, -0.04693604, 0.91073608, 0.09106626, 0.11218753, -0.27883563, -172.13082886, 140.30543518, 190.71319580, 0.03096066, -0.12634267, 0.99150336, -0.10315000, 0.08102407, -0.07489267, 0.00000000, 0.00000000, 0.00000000, 0.82756006, -0.55758053, -0.04823895, 0.04383276
424169102.428010, 0.04238892, -0.05596924, 0.93981934, 0.18285637, 0.19244029, -0.24394955, -171.27529907, 139.44990540, 191.21244812, 0.02528943, -0.12131788, 0.99229151, -0.03807629, 0.06119825, -0.06365685, 0.00000000, 0.00000000, 0.00000000, 0.82880921, -0.55607647, -0.04438212, 0.04341058
424169102.442470, 0.12873840, -0.05189514, 0.97830200, 0.20826799, 0.09676330, -0.21502070, -168.70874023, 138.59439087, 189.04902649, 0.02299779, -0.11901559, 0.99262601, 0.01939112, 0.06304635, -0.05280667, 0.00000000, 0.00000000, 0.00000000, 0.82997514, -0.55448559, -0.04269744, 0.04317320
424169102.458684, 0.16668701, -0.00729370, 1.00166321, 0.16566566, 0.01425191, -0.19356547, -169.39315796, 138.59439087, 190.04753113, 0.02718825, -0.11230224, 0.99330205, 0.10155015, 0.06040709, -0.01500007, 0.00000000, 0.00000000, 0.00000000, 0.83115986, -0.55301386, -0.04249355, 0.03928438
424169102.473763, 0.10542297, -0.04631042, 1.00196838, 0.13680712, -0.08447733, -0.13964871, -169.05094910, 138.93659973, 191.04602051, 0.02690618, -0.10962942, 0.99360830, 0.11803706, 0.08326223, 0.00327891, 0.00000000, 0.00000000, 0.00000000, 0.83198608, -0.55190879, -0.04157838, 0.03830261
424169102.490186, 0.10542297, -0.04631042, 1.00196838, 0.15878086, 0.05240675, -0.06846481, -170.41978455, 138.59439087, 190.71319580, 0.02791773, -0.10745598, 0.99381781, 0.12772192, 0.07381035, -0.00803899, 0.00000000, 0.00000000, 0.00000000, 0.83267323, -0.55096660, -0.04135333, 0.03716186
424169102.505353, 0.04804993, -0.05067444, 0.99827576, 0.24759888, 0.17251585, -0.00850241, -172.30192566, 139.44990540, 191.87811279, 0.03236967, -0.10204335, 0.99425316, 0.03701205, 0.04990406, 0.00689124, 0.00000000, 0.00000000, 0.00000000, 0.83314477, -0.55045107, -0.04168903, 0.03369630
424169102.520990, 0.01173401, -0.03863525, 1.06227112, 0.24779436, 0.26254507, 0.01627990, -170.24867249, 139.79211426, 192.54377747, 0.03011716, -0.09873645, 0.99465775, 0.01793277, 0.04806201, 0.00361799, 0.00000000, 0.00000000, 0.00000000, 0.83327823, -0.55043280, -0.03982826, 0.03293671
424169102.537060, 0.06962585, -0.02030945, 1.12374878, 0.26143374, 0.38523877, 0.04989592, -170.24867249, 139.79211426, 192.54377747, 0.02640946, -0.09502820, 0.99512422, -0.01467545, 0.05639295, 0.06714691, 0.00000000, 0.00000000, 0.00000000, 0.83329428, -0.55062033, -0.03725648, 0.03240143
424169102.552881, 0.10200500, -0.01795959, 1.09384155, 0.13433704, 0.32080119, 0.08822946, -170.41978455, 139.62101746, 191.37886047, 0.02102664, -0.09114050, 0.99561602, 0.01268003, 0.06611609, 0.09610455, 0.00000000, 0.00000000, 0.00000000, 0.83321890, -0.55095761, -0.03394157, 0.03224829
424169102.569728, 0.10200500, -0.01795959, 1.09384155, 0.00973172, 0.18494083, 0.09280797, -170.59088135, 139.10769653, 191.21244812, 0.01514769, -0.08836643, 0.99597287, 0.08678102, 0.05687229, 0.11302068, 0.00000000, 0.00000000, 0.00000000, 0.83297885, -0.55148224, -0.03073700, 0.03269267
424169102.584865, -0.00576782, -0.04501343, 1.03683472, 0.00368209, 0.25283119, 0.11831945, -170.59088135, 138.42327881, 190.21394348, 0.01160090, -0.08781632, 0.99606913, 0.04583318, 0.06848343, 0.07131368, 0.00000000, 0.00000000, 0.00000000, 0.83254698, -0.55217759, -0.02913151, 0.03341841
424169102.600199, -0.06150818, -0.06121826, 0.98060608, 0.04135223, 0.32375943, 0.10709450, -169.73536682, 139.27880859, 190.38035583, 0.00792002, -0.08798432, 0.99609035, -0.01368784, 0.04297088, 0.04074434, 0.00000000, 0.00000000, 0.00000000, 0.83202514, -0.55297319, -0.02767541, 0.03448020
424169102.616471, -0.06213379, -0.03962708, 0.96928406, 0.07240469, 0.34439094, 0.07284651, -167.85322571, 137.73886108, 189.88111877, 0.00295964, -0.08770926, 0.99614173, -0.06446782, 0.02649100, -0.01553564, 0.00000000, 0.00000000, 0.00000000, 0.83151854, -0.55375786, -0.02556466, 0.03571538
424169102.631653, -0.05296326, -0.01805115, 0.97190857, 0.09341357, 0.40373522, 0.06125377, -169.22206116, 139.79211426, 190.21394348, -0.00251974, -0.08694343, 0.99621004, -0.06587015, 0.03378180, -0.03022191, 0.00000000, 0.00000000, 0.00000000, 0.83114316, -0.55435194, -0.02309526, 0.03689955
424169102.647648, -0.05296326, -0.01805115, 0.97190857, 0.12561705, 0.41359797, -0.01506151, -169.73536682, 139.62101746, 190.38035583, -0.00855079, -0.08571468, 0.99628305, -0.04151329, 0.06217037, -0.01294563, 0.00000000, 0.00000000, 0.00000000, 0.83085477, -0.55481697, -0.02026341, 0.03805100
424169102.663205, -0.13203430, -0.00579834, 0.97297668, 0.11296836, 0.39513055, -0.18310085, -170.59088135, 140.13432312, 190.21394348, -0.01540447, -0.08406161, 0.99634147, -0.08579183, 0.08374117, -0.04298760, 0.00000000, 0.00000000, 0.00000000, 0.83076291, -0.55498084, -0.01695858, 0.03926405
424169102.679429, -0.08734131, -0.02404785, 0.94659424, 0.18965249, 0.29797337, -0.35035748, -170.93309021, 140.13432312, 191.21244812, -0.02139181, -0.08226494, 0.99638087, -0.11064249, 0.07646660, -0.02340420, 0.00000000, 0.00000000, 0.00000000, 0.83130971, -0.55417922, -0.01392835, 0.04019400
424169102.695038, -0.00192261, -0.06619263, 1.05387878, 0.23797075, 0.21560393, -0.41524221, -170.93309021, 140.13432312, 191.21244812, -0.02640924, -0.08024253, 0.99642545, -0.06093207, 0.05619468, -0.04983122, 0.00000000, 0.00000000, 0.00000000, 0.83259592, -0.55226513, -0.01118345, 0.04077012
424169102.710878, 0.09162903, -0.01670837, 1.07846069, 0.15904292, 0.21739757, -0.38344699, -171.27529907, 138.42327881, 192.54377747, -0.02938763, -0.07673992, 0.99661797, 0.02746502, 0.01054730, 0.05726083, 0.00000000, 0.00000000, 0.00000000, 0.83436233, -0.54968035, -0.00884621, 0.04015926
424169102.727739, 0.14076233, -0.04293823, 1.06869507, 0.08810962, 0.22918365, -0.23734145, -169.39315796, 139.27880859, 189.04902649, -0.03263696, -0.07423916, 0.99670625, 0.08022912, 0.03825894, 0.06062101, 0.00000000, 0.00000000, 0.00000000, 0.83609232, -0.54708571, -0.00667483, 0.04002893
424169102.742606, 0.14076233, -0.04293823, 1.06869507, 0.00031692, 0.21893102, -0.08363311, -168.53764343, 137.39665222, 190.87960815, -0.03553934, -0.07287248, 0.99670786, 0.16710062, 0.03811296, 0.09583670, 0.00000000, 0.00000000, 0.00000000, 0.83731540, -0.54521266, -0.00499490, 0.04026315
424169102.758537, 0.07156372, -0.04121399, 1.01293945, -0.04914251, 0.24088771, 0.02678634, -168.19543457, 138.08106995, 190.87960815, -0.03905632, -0.07249597, 0.99660373, 0.17981865, 0.02955774, 0.07209136, 0.00000000, 0.00000000, 0.00000000, 0.83781876, -0.54439101, -0.00337776, 0.04106994
424169102.774155, -0.02233887, -0.03895569, 0.95483398, -0.00451699, 0.24320200, 0.06337098, -167.51101685, 138.42327881, 189.21545410, -0.04257678, -0.07333003, 0.99639845, 0.11414050, 0.03211604, 0.01654098, 0.00000000, 0.00000000, 0.00000000, 0.83773098, -0.54443185, -0.00213150, 0.04238182
424169102.790304, -0.07698059, -0.02221680, 0.91583252, 0.00481180, 0.23489427, 0.04936276, -168.53764343, 138.76548767, 190.21394348, -0.04659639, -0.07377589, 0.99618566, 0.02425752, 0.03482020, -0.04135169, 0.00000000, 0.00000000, 0.00000000, 0.83737790, -0.54487713, -0.00059113, 0.04366708
424169102.805679, -0.07698059, -0.02221680, 0.91583252, 0.43632992, 0.05595435, -0.00382350, -170.07757568, 137.56776428, 191.04602051, -0.05046156, -0.07391969, 0.99598670, -0.00691149, 0.03670350, -0.04292274, 0.00000000, 0.00000000, 0.00000000, 0.83704603, -0.54529560, 0.00096722, 0.04478519
424169102.821010, -0.19653320, -0.07817078, 1.20274353, 0.08525551, 0.00578891, -0.12238530, -168.19543457, 138.76548767, 189.88111877, -0.05226802, -0.07007020, 0.99617177, -0.08704473, 0.04933351, 0.02044504, 0.00000000, 0.00000000, 0.00000000, 0.83695905, -0.54551392, 0.00276625, 0.04366299
424169102.838039, -0.02864075, -0.05734253, 1.26112366, -0.29362762, 0.08381474, -0.10874219, -168.19543457, 138.76548767, 189.88111877, -0.05336902, -0.06670471, 0.99634445, -0.14316419, -0.01146606, 0.20639910, 0.00000000, 0.00000000, 0.00000000, 0.83727028, -0.54511531, 0.00416888, 0.04254884
424169102.852723, 0.00346375, -0.03727722, 1.01037598, -0.51014688, 0.09582560, -0.05609896, -168.70874023, 140.30543518, 192.04452515, -0.05387643, -0.06979723, 0.99610525, 0.02523568, 0.01245469, 0.26501840, 0.00000000, 0.00000000, 0.00000000, 0.83765920, -0.54440765, 0.00357293, 0.04398417
424169102.868828, -0.00672913, -0.03198242, 0.63064575, -0.23076238, 0.20658407, -0.01874546, -169.56427002, 140.13432312, 190.21394348, -0.05542497, -0.07720594, 0.99547338, 0.05888871, 0.03992872, 0.01490256, 0.00000000, 0.00000000, 0.00000000, 0.83774023, -0.54399266, 0.00222116, 0.04752220
424169102.885266, -0.04058838, -0.05075073, 0.81175232, 0.27252154, 0.11404774, -0.00339899, -167.51101685, 138.42327881, 189.88111877, -0.05840194, -0.08295859, 0.99484020, 0.03649032, 0.02532615, -0.21819839, 0.00000000, 0.00000000, 0.00000000, 0.83761228, -0.54389869, 0.00190347, 0.05075688
424169102.900670, -0.04058838, -0.05075073, 0.81175232, 0.51317889, 0.07650197, -0.01082575, -169.56427002, 137.05444336, 188.88261414, -0.06048132, -0.08154222, 0.99483311, 0.04386450, 0.04751512, -0.34166536, 0.00000000, 0.00000000, 0.00000000, 0.83760952, -0.54389965, 0.00316265, 0.05072921
424169102.917034, -0.10826111, -0.02880859, 1.16268921, 0.33353216, 0.09121060, -0.05668219, -167.33990479, 136.88334656, 189.38186646, -0.06192369, -0.07438125, 0.99530542, 0.02133531, 0.02363052, -0.18355310, 0.00000000, 0.00000000, 0.00000000, 0.83774758, -0.54390413, 0.00572351, 0.04810956
424169102.932136, -0.02964783, -0.05508423, 1.12280273, 0.06156323, 0.01340502, -0.04336132, -166.65548706, 137.90997314, 189.38186646, -0.06323826, -0.06803472, 0.99567676, -0.04502285, 0.03922612, 0.16701245, 0.00000000, 0.00000000, 0.00000000, 0.83797746, -0.54372067, 0.00801751, 0.04579675
424169102.947685, -0.06101990, -0.02001953, 0.95896912, 0.03154355, 0.05818394, -0.00102745, -168.70874023, 137.56776428, 190.38035583, -0.06368410, -0.06594907, 0.99578863, 0.03403627, 0.01086484, 0.12701407, 0.00000000, 0.00000000, 0.00000000, 0.83817423, -0.54346877, 0.00878706, 0.04503840
424169102.963772, -0.05503845, -0.00764465, 0.94929504, 0.04634220, -0.04700266, -0.00961241, -168.87985229, 138.76548767, 189.54827881, -0.06485661, -0.06548208, 0.99574381, 0.04936894, 0.01563162, 0.01838584, 0.00000000, 0.00000000, 0.00000000, 0.83816479, -0.54346268, 0.00940675, 0.04516207
424169102.979749, -0.05503845, -0.00764465, 0.94929504, 0.04428730, -0.17183701, -0.00124343, -169.22206116, 139.44990540, 190.54678345, -0.06377165, -0.06216702, 0.99602634, 0.01143400, 0.04539761, -0.04631929, 0.00000000, 0.00000000, 0.00000000, 0.83819004, -0.54355369, 0.00985039, 0.04347192
424169102.995341, -0.03291321, -0.02873230, 1.02539062, 0.02946655, -0.13777491, 0.02012045, -169.22206116, 139.44990540, 190.54678345, -0.06187909, -0.06156317, 0.99618322, 0.00684064, 0.05391852, -0.04688815, 0.00000000, 0.00000000, 0.00000000, 0.83813435, -0.54371169, 0.00921277, 0.04270279
424169103.010832, -0.06221008, -0.03573608, 0.97981262, 0.02934111, -0.07959762, -0.01033413, -168.36653137, 138.59439087, 190.71319580, -0.05952689, -0.06105739, 0.99635762, 0.02661368, 0.03232509, 0.02903299, 0.00000000, 0.00000000, 0.00000000, 0.83800481, -0.54399150, 0.00834976, 0.04185047
424169103.027245, -0.07637024, -0.02735901, 0.91354370, 0.03262319, -0.24311944, -0.02466886, -168.36653137, 138.93659973, 190.04753113, -0.05737716, -0.05919408, 0.99659616, -0.00483293, 0.02345799, -0.01678355, 0.00000000, 0.00000000, 0.00000000, 0.83791176, -0.54424440, 0.00794399, 0.04048220
424169103.042782, -0.35459900, 0.04182434, 0.77813721, -0.11070761, -1.08558409, -0.29512059, -167.68211365, 137.22555542, 189.38186646, -0.05479665, -0.05872275, 0.99676925, -0.00564342, 0.01624228, -0.05348618, 0.00000000, 0.00000000, 0.00000000, 0.83793177, -0.54429310, 0.00698802, 0.03957948
424169103.058545, -0.35459900, 0.04182434, 0.77813721, 0.48269502, -0.20635823, -0.67345938, -167.16880798, 135.34341431, 189.54827881, -0.04382940, -0.05959881, 0.99725974, -0.32244256, 0.19489849, -0.22304402, 0.00000000, 0.00000000, 0.00000000, 0.83848442, -0.54366694, 0.00217717, 0.03695126
424169103.074211, -0.08631897, 0.00538635, 0.84617615, 0.57271625, -0.25265036, -0.71868411, -168.02432251, 135.85671997, 190.04753113, -0.02765886, -0.05789389, 0.99793953, 0.03994218, 0.06154074, 0.06915338, 0.00000000, 0.00000000, 0.00000000, 0.84093374, -0.54018534, -0.00401121, 0.03184573
424169103.090603, 0.32402039, -0.17344666, 0.94721985, 0.60633414, -0.06397286, -0.37532968, -168.70874023, 137.22555542, 191.04602051, -0.02714474, -0.04898560, 0.99843055, -0.05917423, 0.05437195, -0.15225440, 0.00000000, 0.00000000, 0.00000000, 0.84403917, -0.53554940, -0.00166280, 0.02796350
424169103.105917, 0.03564453, 0.00016785, 1.07817078, 0.74375059, -0.05017262, 0.09537872, -169.39315796, 137.56776428, 190.38035583, -0.02648164, -0.04008416, 0.99884534, 0.35050201, -0.13336249, -0.05162548, 0.00000000, 0.00000000, 0.00000000, 0.84627504, -0.53220411, 0.00053921, 0.02402180
424169103.121398, 0.09323120, -0.01594543, 1.12464905, 0.24318442, 0.03778546, 0.28831915, -170.07757568, 138.93659973, 191.71170044, -0.02533035, -0.02906234, 0.99925661, 0.32444841, -0.07964127, -0.07884645, 0.00000000, 0.00000000, 0.00000000, 0.84647414, -0.53208066, 0.00299010, 0.01904624
424169103.137248, 0.09323120, -0.01594543, 1.12464905, -0.04002385, 0.05157318, 0.57190852, -170.93309021, 138.08106995, 191.21244812, -0.02461029, -0.02102617, 0.99947596, 0.07969452, 0.02160600, 0.57202673, 0.00000000, 0.00000000, 0.00000000, 0.84557875, -0.53360526, 0.00479639, 0.01545978
424169103.153165, -0.06748962, 0.02278137, 0.99079895, 0.03183410, 0.01501037, 0.38349946, -170.93309021, 138.08106995, 191.21244812, -0.02531284, -0.02211099, 0.99943501, 0.08978122, -0.07603354, -0.09553488, 0.00000000, 0.00000000, 0.00000000, 0.84344597, -0.53695104, 0.00474008, 0.01612514
424169103.169173, -0.05856323, 0.03981018, 1.09902954, 0.02814748, -0.01319969, -0.03367967, -170.41978455, 137.22555542, 191.37886047, -0.02575126, -0.02189138, 0.99942863, -0.04173837, 0.04467275, -0.00862971, 0.00000000, 0.00000000, 0.00000000, 0.84127028, -0.54035048, 0.00491878, 0.01617025
424169103.185224, -0.02288818, -0.01820374, 0.96647644, -0.04228327, 0.07365904, -0.01783412, -167.51101685, 136.02783203, 189.88111877, -0.02516959, -0.02136139, 0.99945492, -0.03339364, 0.06117157, 0.09957460, 0.00000000, 0.00000000, 0.00000000, 0.84089139, -0.54095206, 0.00480601, 0.01579338
424169103.200428, -0.01924133, -0.00611877, 0.98480225, 0.01876304, -0.00959723, -0.02557007, -167.51101685, 137.05444336, 190.87960815, -0.02615447, -0.02216130, 0.99941224, 0.01860137, 0.02199345, 0.02181274, 0.00000000, 0.00000000, 0.00000000, 0.84086751, -0.54096945, 0.00500340, 0.01639656
424169103.217273, -0.01924133, -0.00611877, 0.98480225, 0.03422641, -0.00037045, -0.02990996, -168.53764343, 136.71224976, 190.87960815, -0.02651077, -0.02238806, 0.99939781, 0.01386123, 0.01161535, -0.05139975, 0.00000000, 0.00000000, 0.00000000, 0.84083766, -0.54100917, 0.00509109, 0.01658864
424169103.232487, -0.02062988, 0.01831055, 0.99798584, 0.00596335, 0.00342669, -0.00686430, -167.85322571, 137.73886108, 189.21545410, -0.02632455, -0.02188832, 0.99941379, 0.00958565, 0.03514820, 0.02147549, 0.00000000, 0.00000000, 0.00000000, 0.84091174, -0.54090141, 0.00515011, 0.01632735
424169103.247974, -0.01075745, 0.02207947, 0.98147583, 0.01703518, -0.04343509, -0.02498924, -170.59088135, 137.73886108, 192.87660217, -0.02656513, -0.02189833, 0.99940723, 0.00593525, 0.04020888, -0.00142136, 0.00000000, 0.00000000, 0.00000000, 0.84086232, -0.54097520, 0.00524714, 0.01639714
424169103.264000, -0.00413513, -0.00355530, 0.99520874, 0.00004101, -0.00127459, -0.01747913, -169.39315796, 138.93659973, 190.38035583, -0.02607299, -0.02182072, 0.99942183, 0.01531554, 0.04390018, -0.01794603, 0.00000000, 0.00000000, 0.00000000, 0.84088488, -0.54094689, 0.00506173, 0.01623110
424169103.279595, -0.00950623, -0.00556946, 0.97824097, 0.01655021, 0.00217367, -0.01143029, -168.19543457, 138.42327881, 190.54678345, -0.02574393, -0.02193688, 0.99942786, 0.01599356, 0.03016136, 0.01863856, 0.00000000, 0.00000000, 0.00000000, 0.84088369, -0.54095152, 0.00489183, 0.01619092
424169103.296311, -0.00950623, -0.00556946, 0.97824097, 0.02597514, 0.00210150, -0.01482449, -168.87985229, 137.05444336, 192.21093750, -0.02584139, -0.02197565, 0.99942446, 0.01545015, 0.01370539, -0.01720097, 0.00000000, 0.00000000, 0.00000000, 0.84085338, -0.54099707, 0.00492144, 0.01623388
424169103.311232, -0.01325989, 0.01171875, 1.01962280, -0.01470225, 0.03505040, -0.00771571, -168.87985229, 137.05444336, 192.21093750, -0.02577633, -0.02156509, 0.99943513, 0.01399655, 0.02299941, 0.01608308, 0.00000000, 0.00000000, 0.00000000, 0.84082989, -0.54103850, 0.00500440, 0.01604381
424169103.327914, -0.01786804, 0.02107239, 0.96704102, 0.01877901, -0.00962600, -0.03022581, -169.56427002, 137.73886108, 189.88111877, -0.02623290, -0.02177621, 0.99941868, 0.01297302, 0.03349496, 0.02020416, 0.00000000, 0.00000000, 0.00000000, 0.84077954, -0.54110912, 0.00513788, 0.01625665
424169103.343130, -0.00846863, 0.00430298, 1.00878906, 0.02222514, -0.01429984, -0.02794029, -167.51101685, 137.39665222, 190.21394348, -0.02639617, -0.02183393, 0.99941307, 0.00852813, 0.04290632, -0.03237207, 0.00000000, 0.00000000, 0.00000000, 0.84076689, -0.54112621, 0.00519058, 0.01632525
424169103.359679, -0.00897217, -0.00656128, 0.98297119, 0.01761042, -0.00963399, -0.03256593, -169.05094910, 135.85671997, 191.04602051, -0.02605506, -0.02160660, 0.99942696, 0.00988075, 0.03741470, -0.00922312, 0.00000000, 0.00000000, 0.00000000, 0.84080743, -0.54106965, 0.00510977, 0.01613692
424169103.374523, -0.00897217, -0.00656128, 0.98297119, 0.01638909, -0.01315069, -0.03612951, -168.70874023, 135.85671997, 190.04753113, -0.02596003, -0.02154298, 0.99943084, 0.01660639, 0.02151246, -0.00315397, 0.00000000, 0.00000000, 0.00000000, 0.84085197, -0.54100220, 0.00508832, 0.01608402
424169103.390557, -0.01237488, 0.00416565, 1.00556946, 0.00484855, 0.00572473, -0.01382074, -169.73536682, 136.54113770, 190.38035583, -0.02385638, -0.01937876, 0.99952757, 0.01183246, 0.01770029, -0.00474606, 0.00000000, 0.00000000, 0.00000000, 0.84093426, -0.54091899, 0.00479079, 0.01460377
424169103.406073, -0.01435852, 0.01921082, 0.98072815, 0.02021206, 0.01032534, -0.01125558, -170.59088135, 136.71224976, 190.54678345, -0.02312192, -0.01802695, 0.99957013, 0.01074704, 0.02219260, 0.00599935, 0.00000000, 0.00000000, 0.00000000, 0.84097429, -0.54087642, 0.00484834, 0.01383612
424169103.421525, -0.00799561, 0.01387024, 1.00161743, 0.01885731, -0.00376065, -0.02547154, -170.24867249, 138.08106995, 191.87811279, -0.02238702, -0.01421525, 0.99964833, 0.00802850, 0.03342607, -0.01892016, 0.00000000, 0.00000000, 0.00000000, 0.84094438, -0.54095906, 0.00556916, 0.01203447
424169103.437623, -0.01420593, -0.00283813, 0.98777771, -0.00448716, 0.01284336, -0.00332416, -170.76199341, 138.25218201, 192.37736511, -0.02124348, -0.01126430, 0.99971086, 0.01324787, 0.02513454, 0.00190656, 0.00000000, 0.00000000, 0.00000000, 0.84095848, -0.54096606, 0.00588649, 0.01048392
424169103.453718, -0.01568604, -0.00036621, 0.99555969, 0.01757367, -0.01317120, -0.03844513, -170.76199341, 138.25218201, 192.37736511, -0.02084689, -0.01059446, 0.99972653, 0.01111178, 0.01619443, 0.00059389, 0.00000000, 0.00000000, 0.00000000, 0.84091402, -0.54104241, 0.00590000, 0.01009542
424169103.469459, -0.01568604, -0.00036621, 0.99555969, 0.01291180, -0.00962280, -0.03494280, -170.59088135, 137.73886108, 191.54527283, -0.02007389, -0.01014987, 0.99974698, 0.00963688, 0.00288668, -0.01952237, 0.00000000, 0.00000000, 0.00000000, 0.84092535, -0.54103424, 0.00569533, 0.00969920
424169103.485455, -0.01654053, 0.01138306, 0.99266052, 0.01769431, -0.00137712, -0.01846077, -168.19543457, 136.71224976, 190.54678345, -0.01973087, -0.00965917, 0.99975866, 0.00404484, 0.00929296, -0.00419897, 0.00000000, 0.00000000, 0.00000000, 0.84097110, -0.54096852, 0.00568458, 0.00939957
424169103.500975, -0.01373291, 0.01696777, 0.99618530, 0.01408865, -0.00962919, -0.03493055, -166.99769592, 136.19892883, 191.71170044, -0.01928528, -0.00812711, 0.99978101, 0.00274475, 0.01951017, -0.00712047, 0.00000000, 0.00000000, 0.00000000, 0.84100809, -0.54092134, 0.00591212, 0.00863434
424169103.517061, -0.00708008, 0.00604248, 0.99357605, 0.00373136, 0.01042867, -0.00909816, -168.53764343, 135.68562317, 190.87960815, -0.01871223, -0.00628678, 0.99980515, 0.00497932, 0.02325455, -0.00361984, 0.00000000, 0.00000000, 0.00000000, 0.84105321, -0.54086235, 0.00616945, 0.00770488
424169103.532827, -0.01071167, -0.00436401, 0.99124146, 0.01529906, -0.00369194, -0.01736035, -168.36653137, 137.90997314, 189.38186646, -0.01835513, -0.00568226, 0.99981540, 0.01040530, 0.01686696, -0.00295869, 0.00000000, 0.00000000, 0.00000000, 0.84104961, -0.54087267, 0.00618267, 0.00735411
424169103.548212, -0.01071167, -0.00436401, 0.99124146, 0.02001605, -0.00613725, -0.03131851, -168.70874023, 137.22555542, 191.37886047, -0.01780047, -0.00523436, 0.99982786, 0.00432695, 0.00236570, -0.01053953, 0.00000000, 0.00000000, 0.00000000, 0.84103385, -0.54090295, 0.00607028, 0.00701590
424169103.564005, -0.01588440, 0.00624084, 0.99461365, 0.01185959, 0.00217074, -0.01613450, -170.41978455, 137.90997314, 190.04753113, -0.01743536, -0.00507701, 0.99983507, 0.00672369, 0.00071299, -0.00859365, 0.00000000, 0.00000000, 0.00000000, 0.84108980, -0.54081928, 0.00595997, 0.00685036
424169103.579577, -0.01536560, 0.01335144, 0.98918152, 0.01527589, -0.00845367, -0.03257046, -170.41978455, 139.27880859, 191.04602051, -0.01725181, -0.00443677, 0.99984133, 0.00136741, 0.01067762, -0.00522768, 0.00000000, 0.00000000, 0.00000000, 0.84110968, -0.54079125, 0.00605613, 0.00653124
424169103.596296, -0.00866699, 0.01046753, 0.99661255, 0.01412354, -0.00849016, -0.03956658, -168.19543457, 138.76548767, 191.54527283, -0.01708177, -0.00332074, 0.99984860, 0.00171617, 0.01667218, -0.01066706, 0.00000000, 0.00000000, 0.00000000, 0.84113209, -0.54075974, 0.00628663, 0.00601561
424169103.611529, -0.00738525, -0.00103760, 0.99351501, 0.01189980, 0.00209937, -0.02777411, -168.19543457, 138.76548767, 191.54527283, -0.01669762, -0.00273086, 0.99985683, 0.00784752, 0.01837112, -0.00995817, 0.00000000, 0.00000000, 0.00000000, 0.84120591, -0.54064873, 0.00628530, 0.00566279
424169103.627783, -0.00738525, -0.00103760, 0.99351501, 0.01645141, -0.00725738, -0.02671896, -169.22206116, 137.73886108, 191.54527283, -0.01614180, -0.00214524, 0.99986744, 0.00938216, 0.00548692, -0.00409410, 0.00000000, 0.00000000, 0.00000000, 0.84123356, -0.54061058, 0.00621006, 0.00526589
424169103.643061, -0.01260376, 0.00250244, 0.99507141, 0.00719746, 0.00211748, -0.02898691, -168.70874023, 136.88334656, 190.38035583, -0.01583760, -0.00201042, 0.99987257, 0.00845235, 0.00097282, -0.00635754, 0.00000000, 0.00000000, 0.00000000, 0.84125447, -0.54058042, 0.00611872, 0.00512671
424169103.659615, -0.01506042, 0.01087952, 0.99116516, 0.01780643, 0.00682941, -0.01250301, -167.51101685, 135.00120544, 190.87960815, -0.01551522, -0.00181464, 0.99987799, 0.00291146, 0.00431708, -0.00480657, 0.00000000, 0.00000000, 0.00000000, 0.84129334, -0.54052245, 0.00603637, 0.00495679
424169103.674698, -0.01141357, 0.01176453, 0.99513245, 0.01524899, -0.00960709, -0.03026230, -168.02432251, 137.22555542, 189.71469116, -0.01570877, -0.00117922, 0.99987590, 0.00064834, 0.01205874, -0.00871075, 0.00000000, 0.00000000, 0.00000000, 0.84126930, -0.54055890, 0.00628932, 0.00474207
424169103.691221, -0.01094055, 0.00393677, 0.99256897, 0.00821612, -0.00841559, -0.03264370, -169.56427002, 137.05444336, 191.21244812, -0.01556515, -0.00066854, 0.99987864, 0.00038266, 0.01592733, -0.00643991, 0.00000000, 0.00000000, 0.00000000, 0.84129578, -0.54051894, 0.00636715, 0.00448812
424169103.706277, -0.01094055, 0.00393677, 0.99256897, 0.00829442, -0.00255104, -0.02788942, -169.39315796, 137.90997314, 190.71319580, -0.01519855, -0.00014921, 0.99988449, 0.00416644, 0.00725980, -0.00554550, 0.00000000, 0.00000000, 0.00000000, 0.84133124, -0.54046646, 0.00635355, 0.00417016
424169103.721592, -0.01066589, 0.00294495, 0.99356079, 0.00715032, 0.00100002, -0.02085894, -168.87985229, 137.73886108, 191.21244812, -0.01493273, -0.00000647, 0.99988848, 0.00428209, 0.00195960, -0.00709065, 0.00000000, 0.00000000, 0.00000000, 0.84134342, -0.54044936, 0.00628038, 0.00403814
424169103.737744, -0.01914978, 0.00898743, 0.99414062, 0.01659096, 0.00570396, -0.00671543, -171.27529907, 137.05444336, 191.21244812, -0.01478544, 0.00010167, 0.99989069, 0.00411954, 0.00284327, -0.00632989, 0.00000000, 0.00000000, 0.00000000, 0.84134866, -0.54044221, 0.00624767, 0.00395278
424169103.753398, -0.01528931, 0.01113892, 0.99240112, 0.00943212, -0.00368848, -0.02207707, -171.27529907, 137.05444336, 191.21244812, -0.01488326, 0.00050580, 0.99988914, -0.00426652, 0.00848162, -0.00574849, 0.00000000, 0.00000000, 0.00000000, 0.84132566, -0.54047727, 0.00639788, 0.00380947
424169103.769584, -0.01319885, 0.00640869, 0.99734497, 0.01533129, -0.00374893, -0.02667182, -169.39315796, 137.56776428, 192.04452515, -0.01481858, 0.00077812, 0.99988991, 0.00078049, 0.00885017, -0.00725989, 0.00000000, 0.00000000, 0.00000000, 0.84133694, -0.54046008, 0.00644433, 0.00367729
424169103.785625, -0.01319885, 0.00640869, 0.99734497, 0.00707788, -0.00247328, -0.01626179, -167.51101685, 137.73886108, 190.87960815, -0.01486581, 0.00120429, 0.99988878, -0.00019462, 0.00965997, -0.00597703, 0.00000000, 0.00000000, 0.00000000, 0.84132552, -0.54047734, 0.00657930, 0.00351091
424169103.801150, -0.01190186, 0.00344849, 0.99281311, 0.01287985, -0.00956554, -0.02563106, -168.53764343, 136.02783203, 192.54377747, -0.01473891, 0.00132662, 0.99989051, 0.00475966, 0.00235075, -0.00982397, 0.00000000, 0.00000000, 0.00000000, 0.84131366, -0.54049659, 0.00655890, 0.00342530
424169103.817746, -0.01292419, 0.00494385, 0.99559021, 0.01648284, -0.00250976, -0.01383672, -168.53764343, 136.71224976, 189.21545410, -0.01455137, 0.00142161, 0.99989313, 0.00264952, 0.00202688, -0.00708000, 0.00000000, 0.00000000, 0.00000000, 0.84134426, -0.54045017, 0.00650586, 0.00333429
424169103.832850, -0.00827026, 0.01316833, 0.99389648, 0.01536111, -0.00140029, -0.02430454, -169.22206116, 136.71224976, 189.21545410, -0.01434577, 0.00164018, 0.99989575, 0.00142157, 0.00330367, -0.00430554, 0.00000000, 0.00000000, 0.00000000, 0.84134972, -0.54044289, 0.00647845, 0.00318672
424169103.848349, -0.01016235, 0.01123047, 0.99787903, 0.00952533, 0.00335052, -0.01613929, -169.39315796, 137.90997314, 190.71319580, -0.01422049, 0.00189443, 0.99989706, 0.00360038, 0.00788645, -0.00601586, 0.00000000, 0.00000000, 0.00000000, 0.84136449, -0.54042052, 0.00649454, 0.00304573
424169103.864838, -0.01016235, 0.01123047, 0.99787903, 0.00838336, 0.00449568, -0.02078784, -171.10420227, 139.27880859, 192.04452515, -0.01398749, 0.00237512, 0.99989933, 0.00380988, 0.00984717, -0.00302740, 0.00000000, 0.00000000, 0.00000000, 0.84136063, -0.54042758, 0.00652638, 0.00278059
424169103.879939, -0.01127625, 0.00637817, 0.99359131, 0.01533688, -0.00135741, -0.01732093, -170.76199341, 137.22555542, 191.37886047, -0.01393383, 0.00265439, 0.99989939, 0.00166576, 0.00447146, -0.00504161, 0.00000000, 0.00000000, 0.00000000, 0.84133970, -0.54046018, 0.00657917, 0.00264885
424169103.895682, -0.01380920, 0.00177002, 0.99679565, 0.01764957, -0.00490075, -0.02201156, -169.90646362, 137.73886108, 191.21244812, -0.01388221, 0.00275918, 0.99989980, 0.00260597, 0.00361899, -0.00630852, 0.00000000, 0.00000000, 0.00000000, 0.84131784, -0.54049442, 0.00658567, 0.00259108
424169103.912110, -0.01203918, 0.00836182, 0.99285889, 0.00949710, -0.00020107, -0.02434582, -169.90646362, 137.73886108, 191.21244812, -0.01376250, 0.00277790, 0.99990141, -0.00004671, -0.00100788, -0.00310578, 0.00000000, 0.00000000, 0.00000000, 0.84134020, -0.54046034, 0.00654047, 0.00255059
424169103.928611, -0.01113892, 0.01103210, 0.99388123, 0.01060764, -0.00249219, -0.01622531, -170.07757568, 137.22555542, 190.71319580, -0.01368926, 0.00281028, 0.99990237, 0.00126860, 0.00213357, -0.00356446, 0.00000000, 0.00000000, 0.00000000, 0.84136186, -0.54042705, 0.00651850, 0.00251691
424169103.943348, -0.01113892, 0.01103210, 0.99388123, 0.01178529, -0.00370126, -0.02205257, -167.85322571, 135.34341431, 191.21244812, -0.01359516, 0.00308407, 0.99990284, 0.00270039, 0.00768864, -0.00728808, 0.00000000, 0.00000000, 0.00000000, 0.84136292, -0.54042562, 0.00655291, 0.00237629
424169103.959722, -0.01200867, 0.00762939, 0.99584961, 0.01526657, -0.00723687, -0.02440308, -166.48439026, 135.68562317, 190.87960815, -0.01348646, 0.00336847, 0.99990338, 0.00358351, 0.00763312, -0.00403851, 0.00000000, 0.00000000, 0.00000000, 0.84136384, -0.54042444, 0.00658403, 0.00222726
424169103.975135, -0.01162720, 0.00225830, 0.99206543, 0.01305109, 0.00333854, -0.01493874, -168.53764343, 135.00120544, 190.54678345, -0.01347228, 0.00345473, 0.99990326, 0.00146362, 0.00417467, -0.00405367, 0.00000000, 0.00000000, 0.00000000, 0.84135674, -0.54043545, 0.00660134, 0.00218723
424169103.990974, -0.01467896, 0.00598145, 0.99436951, 0.01196052, 0.00559370, -0.02887905, -168.70874023, 135.85671997, 191.71170044, -0.01341206, 0.00336515, 0.99990439, 0.00178486, -0.00110685, -0.00783896, 0.00000000, 0.00000000, 0.00000000, 0.84136667, -0.54042050, 0.00655184, 0.00220852
424169104.006407, -0.01232910, 0.00885010, 0.99061584, 0.01645940, -0.00727176, -0.02904710, -168.87985229, 136.71224976, 192.54377747, -0.01354067, 0.00344776, 0.99990237, -0.00113828, 0.00253368, -0.00553287, 0.00000000, 0.00000000, 0.00000000, 0.84137069, -0.54041331, 0.00662829, 0.00220847
424169104.021815, -0.01232910, 0.00885010, 0.99061584, 0.01535179, -0.00018296, -0.01613716, -170.24867249, 137.39665222, 191.21244812, -0.01349500, 0.00363294, 0.99990237, 0.00021985, 0.00524768, -0.00803527, 0.00000000, 0.00000000, 0.00000000, 0.84138034, -0.54039826, 0.00665916, 0.00211810
424169104.038124, -0.00964355, 0.00975037, 0.99487305, 0.01189581, 0.00210656, -0.02661004, -170.07757568, 138.93659973, 192.04452515, -0.01347853, 0.00392131, 0.99990147, 0.00258376, 0.00709553, -0.00702733, 0.00000000, 0.00000000, 0.00000000, 0.84136427, -0.54042289, 0.00673009, 0.00199253
424169104.053933, -0.01058960, 0.00024414, 0.99504089, 0.01766981, -0.00493644, -0.02783136, -168.19543457, 136.02783203, 192.54377747, -0.01331750, 0.00410375, 0.99990290, 0.00367394, 0.00564661, -0.00502985, 0.00000000, 0.00000000, 0.00000000, 0.84140095, -0.54036645, 0.00671177, 0.00187181
424169104.069657, -0.01126099, 0.00660706, 0.99708557, 0.01776275, 0.00210310, -0.02189358, -168.19543457, 136.02783203, 192.54377747, -0.01316036, 0.00417363, 0.99990469, 0.00257076, -0.00392949, -0.00486379, 0.00000000, 0.00000000, 0.00000000, 0.84141617, -0.54034357, 0.00666458, 0.00179976
424169104.085746, -0.01205444, 0.00885010, 0.99185181, 0.01771721, -0.00021705, -0.01960486, -169.05094910, 136.54113770, 191.04602051, -0.01307196, 0.00437526, 0.99990499, 0.00181097, 0.00223179, -0.00281941, 0.00000000, 0.00000000, 0.00000000, 0.84143926, -0.54030775, 0.00668194, 0.00169076
424169104.101790, -0.01077271, 0.00660706, 0.99258423, 0.01415257, -0.00133664, -0.01500505, -168.87985229, 137.73886108, 189.54827881, -0.01300281, 0.00452864, 0.99990523, 0.00050587, 0.00239885, -0.00779400, 0.00000000, 0.00000000, 0.00000000, 0.84144914, -0.54029247, 0.00669432, 0.00160743
424169104.117452, -0.01077271, 0.00660706, 0.99258423, 0.01658910, 0.00330498, -0.01723039, -167.51101685, 137.05444336, 190.21394348, -0.01296023, 0.00483555, 0.99990433, -0.00138303, 0.00749355, -0.00699966, 0.00000000, 0.00000000, 0.00000000, 0.84145848, -0.54027751, 0.00675934, 0.00146667
424169104.132988, -0.01004028, 0.00730896, 0.99659729, 0.01298318, -0.00494656, -0.03370017, -168.53764343, 137.05444336, 190.54678345, -0.01291705, 0.00493928, 0.99990439, 0.00214435, 0.00166778, -0.00732014, 0.00000000, 0.00000000, 0.00000000, 0.84144490, -0.54029869, 0.00676916, 0.00141153
424169104.148507, -0.01080322, 0.00784302, 0.99435425, 0.01767247, -0.00374041, -0.02315592, -169.56427002, 136.71224976, 191.87811279, -0.01276715, 0.00515552, 0.99990523, 0.00272686, 0.00215344, -0.00330792, 0.00000000, 0.00000000, 0.00000000, 0.84148140, -0.54024222, 0.00676459, 0.00127960
424169104.164455, -0.01380920, 0.00984192, 0.99438477, 0.01886397, -0.00257235, -0.02195989, -170.07757568, 138.25218201, 191.37886047, -0.01267094, 0.00516000, 0.99990642, 0.00186772, 0.00268302, -0.00555216, 0.00000000, 0.00000000, 0.00000000, 0.84149814, -0.54021671, 0.00672536, 0.00125152
424169104.180485, -0.01348877, 0.00765991, 0.99261475, 0.01192830, 0.00565096, -0.01956731, -170.59088135, 138.42327881, 190.21394348, -0.01254095, 0.00527193, 0.99990743, 0.00251592, 0.00084684, -0.00807091, 0.00000000, 0.00000000, 0.00000000, 0.84150008, -0.54021417, 0.00670090, 0.00116929
424169104.195940, -0.01348877, 0.00765991, 0.99261475, 0.01068567, -0.00022877, -0.02782551, -170.24867249, 138.42327881, 192.21093750, -0.01251485, 0.00544249, 0.99990690, 0.00120809, 0.00241579, -0.00530849, 0.00000000, 0.00000000, 0.00000000, 0.84152778, -0.54017074, 0.00673605, 0.00109013
424169104.211973, -0.01249695, 0.00691223, 0.99485779, 0.01181911, -0.00135954, -0.02084936, -170.24867249, 138.42327881, 192.21093750, -0.01248572, 0.00552089, 0.99990684, -0.00100305, 0.00213903, -0.00729206, 0.00000000, 0.00000000, 0.00000000, 0.84155089, -0.54013470, 0.00674501, 0.00104898
424169104.228179, -0.01336670, 0.00398254, 0.99559021, 0.01296533, -0.00731677, -0.03955913, -168.87985229, 137.73886108, 190.54678345, -0.01236104, 0.00567567, 0.99990749, -0.00013591, 0.00123657, -0.00504970, 0.00000000, 0.00000000, 0.00000000, 0.84156762, -0.54010896, 0.00673437, 0.00094997
424169104.243373, -0.01585388, 0.00527954, 0.99285889, 0.00478384, 0.00223732, -0.01155199, -168.36653137, 136.88334656, 190.38035583, -0.01228317, 0.00568786, 0.99990839, -0.00108353, -0.00170532, -0.00431817, 0.00000000, 0.00000000, 0.00000000, 0.84160956, -0.54004401, 0.00670497, 0.00092329
424169104.259887, -0.01211548, 0.01104736, 0.99487305, 0.02001366, -0.00373136, -0.01963948, -167.33990479, 135.85671997, 190.04753113, -0.01229788, 0.00556765, 0.99990886, -0.00174021, -0.00451479, -0.00485273, 0.00000000, 0.00000000, 0.00000000, 0.84160975, -0.54004396, 0.00667870, 0.00097785
424169104.275086, -0.01211548, 0.01104736, 0.99487305, 0.02122433, -0.00139603, -0.01842428, -168.70874023, 136.19892883, 191.04602051, -0.01229759, 0.00572182, 0.99990803, 0.00024315, 0.00312828, -0.00830034, 0.00000000, 0.00000000, 0.00000000, 0.84161282, -0.54003876, 0.00672022, 0.00091285
424169104.290991, -0.01058960, 0.00880432, 0.99285889, 0.00823876, -0.00725578, -0.03378832, -169.05094910, 137.56776428, 190.71319580, -0.01228443, 0.00590404, 0.99990714, 0.00016895, 0.00514332, -0.00503407, 0.00000000, 0.00000000, 0.00000000, 0.84161222, -0.54003928, 0.00676389, 0.00083262
424169104.306645, -0.01144409, 0.00466919, 0.99307251, 0.01298611, -0.00375053, -0.02902446, -169.90646362, 137.39665222, 191.54527283, -0.01213475, 0.00600448, 0.99990833, 0.00154515, 0.00279985, -0.00704946, 0.00000000, 0.00000000, 0.00000000, 0.84164240, -0.53999281, 0.00672805, 0.00074956
424169104.321979, -0.01383972, 0.00254822, 0.99182129, 0.02115935, -0.00848536, -0.03250974, -170.59088135, 139.10769653, 192.21093750, -0.01197897, 0.00609767, 0.99990964, 0.00053488, -0.00142848, -0.00683715, 0.00000000, 0.00000000, 0.00000000, 0.84168088, -0.53993345, 0.00668770, 0.00066781
424169104.338178, -0.01391602, 0.00498962, 0.99234009, 0.01301460, -0.00019867, -0.02081766, -170.24867249, 137.39665222, 192.54377747, -0.01190850, 0.00622012, 0.99990976, 0.00089165, 0.00113462, -0.00383125, 0.00000000, 0.00000000, 0.00000000, 0.84170232, -0.53990005, 0.00669113, 0.00059698
424169104.354054, -0.01391602, 0.00498962, 0.99234009, 0.01195120, 0.00681130, -0.02071167, -169.56427002, 137.39665222, 189.88111877, -0.01191708, 0.00620544, 0.99990976, 0.00021359, -0.00101745, -0.00683722, 0.00000000, 0.00000000, 0.00000000, 0.84172548, -0.53986394, 0.00669080, 0.00060519
424169104.371162, -0.01196289, 0.00590515, 0.99758911, 0.01064093, -0.00375186, -0.03137657, -168.19543457, 137.39665222, 192.21093750, -0.01190590, 0.00625850, 0.99990952, 0.00185035, 0.00083684, -0.00781359, 0.00000000, 0.00000000, 0.00000000, 0.84174513, -0.53983323, 0.00670044, 0.00057960
424169104.386077, -0.01103210, 0.00785828, 0.99584961, 0.01414804, -0.00493164, -0.03019572, -168.19543457, 137.39665222, 192.21093750, -0.01189627, 0.00618144, 0.99991012, -0.00006662, -0.00027629, -0.00232102, 0.00000000, 0.00000000, 0.00000000, 0.84176505, -0.53980243, 0.00667561, 0.00060919
424169104.401446, -0.01148987, 0.00590515, 0.99533081, 0.00829548, -0.00375373, -0.03372920, -167.51101685, 138.42327881, 189.21545410, -0.01175304, 0.00628316, 0.99991119, 0.00072094, 0.00157512, -0.00406158, 0.00000000, 0.00000000, 0.00000000, 0.84181503, -0.53972497, 0.00664283, 0.00052710
424169104.417641, -0.01399231, 0.00791931, 0.99261475, 0.00839828, 0.00566987, -0.01960406, -166.82659912, 137.39665222, 190.21394348, -0.01169066, 0.00633909, 0.99991155, 0.00047545, -0.00116636, -0.00384834, 0.00000000, 0.00000000, 0.00000000, 0.84185648, -0.53966049, 0.00663170, 0.00048621
424169104.433118, -0.01399231, 0.00791931, 0.99261475, 0.01185826, -0.00022797, -0.02664919, -169.05094910, 138.25218201, 192.04452515, -0.01172135, 0.00634699, 0.99991113, -0.00246932, 0.00033636, -0.00630459, 0.00000000, 0.00000000, 0.00000000, 0.84188605, -0.53961418, 0.00664678, 0.00049081
424169104.449083, -0.01278687, 0.00959778, 0.99638367, 0.00832557, 0.00219684, -0.01500718, -170.24867249, 137.39665222, 191.87811279, -0.01172548, 0.00646919, 0.99991035, -0.00031370, 0.00212151, -0.00329778, 0.00000000, 0.00000000, 0.00000000, 0.84188079, -0.53962199, 0.00668149, 0.00044054
424169104.464917, -0.01060486, 0.00907898, 0.99185181, 0.01418613, 0.00100481, -0.01380210, -170.59088135, 138.42327881, 191.87811279, -0.01172687, 0.00654936, 0.99990982, -0.00106000, 0.00304842, -0.00352612, 0.00000000, 0.00000000, 0.00000000, 0.84187881, -0.53962483, 0.00670370, 0.00040719
424169104.480508, -0.01022339, 0.00440979, 0.99507141, 0.00939563, -0.00722622, -0.02795600, -170.59088135, 138.08106995, 191.21244812, -0.01177656, 0.00662938, 0.99990869, 0.00117170, 0.00244960, -0.00805687, 0.00000000, 0.00000000, 0.00000000, 0.84185830, -0.53965633, 0.00674620, 0.00038717
424169104.496062, -0.01170349, 0.00492859, 0.99531555, 0.01881017, -0.00487838, -0.01734357, -171.10420227, 138.59439087, 191.71170044, -0.01165335, 0.00667947, 0.99990976, 0.00114004, -0.00078958, -0.00457898, 0.00000000, 0.00000000, 0.00000000, 0.84189520, -0.53959927, 0.00670787, 0.00033238
424169104.512373, -0.01170349, 0.00492859, 0.99531555, 0.01881550, -0.00608825, -0.02434689, -170.07757568, 137.22555542, 192.37736511, -0.01158555, 0.00674783, 0.99991012, 0.00125535, 0.00158347, -0.00581527, 0.00000000, 0.00000000, 0.00000000, 0.84189010, -0.53960737, 0.00669777, 0.00028537
424169104.527970, -0.01182556, 0.00958252, 0.99336243, 0.01418479, -0.00139390, -0.02431679, -170.07757568, 137.22555542, 192.37736511, -0.01145419, 0.00686263, 0.99991083, 0.00069675, -0.00074386, -0.00532772, 0.00000000, 0.00000000, 0.00000000, 0.84192064, -0.53956006, 0.00667346, 0.00020123
424169104.543661, -0.01301575, 0.00788879, 0.99411011, 0.01992737, -0.00958232, -0.02206589, -168.53764343, 137.05444336, 190.87960815, -0.01140699, 0.00696044, 0.99991071, -0.00041857, 0.00262208, -0.00654829, 0.00000000, 0.00000000, 0.00000000, 0.84195619, -0.53950453, 0.00667999, 0.00014687
424169104.560149, -0.01127625, 0.00688171, 0.99607849, 0.02238067, -0.00136673, -0.01259196, -167.16880798, 136.02783203, 190.87960815, -0.01142234, 0.00704187, 0.99990994, -0.00159341, 0.00084692, -0.00579986, 0.00000000, 0.00000000, 0.00000000, 0.84196012, -0.53949805, 0.00670842, 0.00011668
424169104.575194, -0.00955200, 0.00657654, 0.99433899, 0.01178475, -0.00730319, -0.03840731, -167.16880798, 136.71224976, 190.87960815, -0.01138336, 0.00723312, 0.99990904, -0.00236481, 0.00068619, -0.00854552, 0.00000000, 0.00000000, 0.00000000, 0.84197075, -0.53948103, 0.00674360, 0.00002552
424169104.591814, -0.00955200, 0.00657654, 0.99433899, 0.01886743, -0.00618093, -0.03947843, -169.90646362, 137.39665222, 191.54527283, -0.01123302, 0.00724854, 0.99991065, 0.00049083, -0.00184693, -0.00782995, 0.00000000, 0.00000000, 0.00000000, 0.84201385, -0.53941449, 0.00668446, -0.00002206
424169104.606925, -0.01055908, 0.00833130, 0.99584961, 0.01063986, -0.00254918, -0.02553705, -171.95971680, 138.76548767, 191.21244812, -0.01113126, 0.00739440, 0.99991071, -0.00095370, 0.00171510, -0.00931012, 0.00000000, 0.00000000, 0.00000000, 0.84205949, -0.53934328, 0.00668095, -0.00011148
424169104.622185, -0.01106262, 0.00808716, 0.99510193, 0.01299569, -0.00136594, -0.02083737, -170.07757568, 139.96322632, 191.04602051, -0.01104942, 0.00747999, 0.99991095, 0.00049034, 0.00085131, -0.00406137, 0.00000000, 0.00000000, 0.00000000, 0.84209852, -0.53928245, 0.00666956, -0.00017007
424169104.638425, -0.00810242, 0.00727844, 0.99507141, 0.00711570, -0.00013848, -0.01622238, -169.90646362, 138.76548767, 192.54377747, -0.01107155, 0.00758518, 0.99990994, 0.00000892, 0.00050197, -0.00480801, 0.00000000, 0.00000000, 0.00000000, 0.84209542, -0.53928681, 0.00670725, -0.00020836
424169104.653946, -0.01249695, 0.00714111, 0.99360657, 0.01056423, -0.00721823, -0.02561588, -170.41978455, 136.19892883, 190.38035583, -0.01104898, 0.00758981, 0.99991018, -0.00074606, 0.00077201, -0.00705127, 0.00000000, 0.00000000, 0.00000000, 0.84210792, -0.53926739, 0.00669899, -0.00021655
424169104.671177, -0.01249695, 0.00714111, 0.99360657, 0.01296587, -0.00371484, -0.02320466, -170.41978455, 136.19892883, 190.38035583, -0.01098999, 0.00752966, 0.99991125, -0.00295654, -0.00131933, -0.00755591, 0.00000000, 0.00000000, 0.00000000, 0.84212413, -0.53924260, 0.00665792, -0.00020733
424169104.687283, -0.01153564, 0.00785828, 0.99459839, 0.02117453, -0.00370925, -0.01497149, -168.87985229, 136.37004089, 190.21394348, -0.01095031, 0.00750963, 0.99991184, -0.00075318, -0.00256578, -0.00882298, 0.00000000, 0.00000000, 0.00000000, 0.84214032, -0.53921758, 0.00663580, -0.00020979
424169104.701714, -0.01266479, 0.00469971, 0.99433899, 0.01297519, -0.00493217, -0.03137204, -169.05094910, 136.88334656, 191.37886047, -0.01089942, 0.00766083, 0.99991125, -0.00063622, 0.00019745, -0.00531286, 0.00000000, 0.00000000, 0.00000000, 0.84215111, -0.53920046, 0.00665514, -0.00028732
424169104.717898, -0.01249695, 0.00714111, 0.99459839, 0.00482272, 0.00336863, -0.01735209, -168.02432251, 134.83009338, 190.71319580, -0.01087337, 0.00773840, 0.99991095, -0.00179142, -0.00303869, -0.00557195, 0.00000000, 0.00000000, 0.00000000, 0.84217917, -0.53915649, 0.00666506, -0.00032735
424169104.733338, -0.01153564, 0.00761414, 0.99386597, 0.01772121, -0.00022424, -0.02076893, -168.53764343, 136.71224976, 189.88111877, -0.01099531, 0.00766157, 0.99991018, -0.00150164, -0.00052046, -0.00531181, 0.00000000, 0.00000000, 0.00000000, 0.84218833, -0.53914184, 0.00669570, -0.00026224
424169104.750484, -0.01225281, 0.00689697, 0.99560547, 0.01528015, -0.00485947, -0.01738006, -169.56427002, 137.05444336, 191.87811279, -0.01107374, 0.00773936, 0.99990875, -0.00131640, 0.00355214, -0.00700407, 0.00000000, 0.00000000, 0.00000000, 0.84218882, -0.53914039, 0.00674970, -0.00027386
424169104.764938, -0.01225281, 0.00689697, 0.99560547, 0.01645301, -0.00485867, -0.01620400, -169.22206116, 138.08106995, 191.54527283, -0.01098625, 0.00781385, 0.99990910, 0.00094597, -0.00122206, -0.00605841, 0.00000000, 0.00000000, 0.00000000, 0.84220365, -0.53911740, 0.00673293, -0.00032900
424169104.780480, -0.01348877, 0.00790405, 0.99287415, 0.01654729, 0.00097765, -0.01610573, -170.07757568, 138.93659973, 192.37736511, -0.01096348, 0.00791993, 0.99990851, -0.00128932, -0.00102295, -0.00430307, 0.00000000, 0.00000000, 0.00000000, 0.84217180, -0.53916689, 0.00675196, -0.00037941
424169104.796271, -0.01029968, 0.00733948, 0.99359131, 0.01884000, -0.00252947, -0.01497602, -168.70874023, 138.59439087, 191.37886047, -0.01101294, 0.00792303, 0.99990797, -0.00247583, -0.00001898, -0.00703382, 0.00000000, 0.00000000, 0.00000000, 0.84218115, -0.53915202, 0.00677362, -0.00036751
424169104.812662, -0.01126099, 0.00614929, 0.99234009, 0.01421409, 0.00095474, -0.02194977, -169.56427002, 137.73886108, 190.54678345, -0.01103062, 0.00798558, 0.99990726, 0.00073094, -0.00064610, -0.00631597, 0.00000000, 0.00000000, 0.00000000, 0.84218189, -0.53915054, 0.00679792, -0.00038909
424169104.829746, -0.01171875, 0.00541687, 0.99331665, 0.01765356, -0.00490794, -0.02317563, -169.05094910, 136.19892883, 190.71319580, -0.01105134, 0.00807113, 0.99990636, -0.00419219, 0.00158768, -0.00599461, 0.00000000, 0.00000000, 0.00000000, 0.84221287, -0.53910172, 0.00682969, -0.00041993
424169104.843903, -0.01171875, 0.00541687, 0.99331665, 0.01660002, 0.00448689, -0.01488254, -169.05094910, 136.19892883, 190.71319580, -0.01104272, 0.00817845, 0.99990559, -0.00146949, 0.00019863, -0.00428485, 0.00000000, 0.00000000, 0.00000000, 0.84221070, -0.53910475, 0.00685499, -0.00046742
424169104.860612, -0.01173401, 0.00592041, 0.99407959, 0.01409824, -0.00724460, -0.02674320, -168.70874023, 135.51451111, 190.38035583, -0.01106017, 0.00823011, 0.99990499, -0.00065858, -0.00281324, -0.00658831, 0.00000000, 0.00000000, 0.00000000, 0.84222160, -0.53908744, 0.00687626, -0.00048461
424169104.876231, -0.01345825, 0.00666809, 0.99409485, 0.01185053, 0.00338781, -0.00796711, -169.90646362, 136.02783203, 188.88261414, -0.01102655, 0.00825784, 0.99990511, -0.00070746, -0.00233743, -0.00582552, 0.00000000, 0.00000000, 0.00000000, 0.84221333, -0.53910042, 0.00686958, -0.00050525
424169104.891893, -0.01240540, 0.00396729, 0.99333191, 0.01172723, -0.00960203, -0.03262665, -168.19543457, 136.71224976, 190.54678345, -0.01118079, 0.00826130, 0.99990338, -0.00227746, -0.00159321, -0.00580852, 0.00000000, 0.00000000, 0.00000000, 0.84219315, -0.53913114, 0.00693549, -0.00046487
424169104.907269, -0.01246643, 0.00616455, 0.99435425, 0.00480914, 0.00099123, -0.02437511, -169.05094910, 137.56776428, 192.04452515, -0.01110512, 0.00836854, 0.99990332, -0.00191062, 0.00000854, -0.00353491, 0.00000000, 0.00000000, 0.00000000, 0.84221511, -0.53909681, 0.00693251, -0.00053071
424169104.922539, -0.01246643, 0.00616455, 0.99435425, 0.01649189, -0.00372683, -0.02200410, -169.22206116, 138.08106995, 192.54377747, -0.01101879, 0.00831882, 0.99990469, 0.00169567, -0.00100986, -0.00733572, 0.00000000, 0.00000000, 0.00000000, 0.84224237, -0.53905485, 0.00688272, -0.00053339
424169104.938694, -0.00973511, 0.00439453, 0.99456787, 0.01532330, -0.00373482, -0.02434396, -170.41978455, 138.59439087, 192.04452515, -0.01104081, 0.00831220, 0.99990451, -0.00142562, -0.00214765, -0.00555025, 0.00000000, 0.00000000, 0.00000000, 0.84223577, -0.53906508, 0.00689022, -0.00052458
424169104.954510, -0.01245117, 0.00616455, 0.99584961, 0.02242115, 0.00216355, -0.00787736, -169.73536682, 137.56776428, 191.37886047, -0.01100256, 0.00827428, 0.99990523, 0.00126745, -0.00387975, -0.00533736, 0.00000000, 0.00000000, 0.00000000, 0.84223761, -0.53906255, 0.00686388, -0.00051895
424169104.970864, -0.01052856, 0.00660706, 0.99458313, 0.01534220, -0.00256782, -0.02432425, -169.73536682, 136.54113770, 191.71170044, -0.01100178, 0.00835972, 0.99990451, -0.00144939, -0.00219517, -0.00405492, 0.00000000, 0.00000000, 0.00000000, 0.84222948, -0.53907492, 0.00688660, -0.00055504
424169104.986399, -0.01324463, 0.00813293, 0.99586487, 0.01415896, -0.00374973, -0.02784814, -169.73536682, 136.54113770, 191.71170044, -0.01099500, 0.00839072, 0.99990433, -0.00002185, -0.00247031, -0.00931902, 0.00000000, 0.00000000, 0.00000000, 0.84224928, -0.53904390, 0.00689208, -0.00057017
424169105.001967, -0.01324463, 0.00813293, 0.99586487, 0.01527696, -0.00965689, -0.03841024, -168.02432251, 137.22555542, 192.04452515, -0.01089607, 0.00839190, 0.99990541, -0.00044121, 0.00019880, -0.00581057, 0.00000000, 0.00000000, 0.00000000, 0.84227485, -0.53900444, 0.00685070, -0.00059765
424169105.018216, -0.00979614, 0.00659180, 0.99433899, 0.01303990, -0.00144450, -0.03364105, -168.02432251, 136.19892883, 190.71319580, -0.01087139, 0.00839248, 0.99990571, -0.00254108, -0.00317397, -0.00657378, 0.00000000, 0.00000000, 0.00000000, 0.84230699, -0.53895433, 0.00684043, -0.00060496
424169105.033536, -0.01078796, 0.00688171, 0.99110413, 0.01181352, -0.00375133, -0.03020025, -167.51101685, 135.68562317, 190.54678345, -0.01080978, 0.00841956, 0.99990612, 0.00101363, -0.00182776, -0.00556714, 0.00000000, 0.00000000, 0.00000000, 0.84234706, -0.53889192, 0.00682173, -0.00063347
424169105.049509, -0.01254272, 0.00885010, 0.99311829, 0.01299170, -0.00135874, -0.01967330, -168.87985229, 137.39665222, 190.87960815, -0.01076424, 0.00833910, 0.99990731, -0.00002373, -0.00145739, -0.00880316, 0.00000000, 0.00000000, 0.00000000, 0.84238272, -0.53883670, 0.00678082, -0.00061230
424169105.065260, -0.01086426, 0.01004028, 0.99388123, 0.01294296, -0.00487518, -0.02206029, -171.27529907, 137.73886108, 190.87960815, -0.01079772, 0.00833429, 0.99990696, -0.00099733, -0.00044550, -0.00904698, 0.00000000, 0.00000000, 0.00000000, 0.84237305, -0.53885168, 0.00679364, -0.00060113
424169105.080834, -0.01086426, 0.01004028, 0.99388123, 0.02117293, -0.00610796, -0.02548672, -171.27529907, 139.10769653, 191.54527283, -0.01077963, 0.00840342, 0.99990660, -0.00173258, -0.00051463, -0.00628476, 0.00000000, 0.00000000, 0.00000000, 0.84239355, -0.53881944, 0.00680463, -0.00063539
424169105.096557, -0.01150513, 0.00637817, 0.99359131, 0.00834688, 0.00095794, -0.02666650, -169.56427002, 138.76548767, 192.87660217, -0.01072999, 0.00853867, 0.99990600, -0.00153808, -0.00066514, -0.00428525, 0.00000000, 0.00000000, 0.00000000, 0.84240728, -0.53879770, 0.00682014, -0.00070591
424169105.112299, -0.01313782, 0.00469971, 0.99758911, 0.01877502, -0.00961881, -0.02906201, -169.73536682, 137.90997314, 191.04602051, -0.01070392, 0.00855286, 0.99990612, -0.00080121, -0.00217468, -0.00631482, 0.00000000, 0.00000000, 0.00000000, 0.84243433, -0.53875549, 0.00681294, -0.00071925
424169105.129030, -0.01248169, 0.00617981, 0.99035645, 0.01654462, -0.00021785, -0.02078118, -169.05094910, 137.56776428, 192.37736511, -0.01061602, 0.00852915, 0.99990726, -0.00252179, -0.00382944, -0.00231816, 0.00000000, 0.00000000, 0.00000000, 0.84246884, -0.53870205, 0.00676948, -0.00073337
424169105.143859, -0.01226807, 0.00689697, 0.99534607, 0.01420370, -0.00022664, -0.02429708, -169.05094910, 137.56776428, 192.37736511, -0.01052243, 0.00859772, 0.99990767, -0.00050967, -0.00148712, -0.00482100, 0.00000000, 0.00000000, 0.00000000, 0.84249124, -0.53866720, 0.00674850, -0.00078774
424169105.160441, -0.01226807, 0.00689697, 0.99534607, 0.01414911, -0.00613433, -0.03603550, -168.70874023, 135.85671997, 190.38035583, -0.01050045, 0.00860541, 0.99990785, 0.00023128, -0.00248664, -0.00582825, 0.00000000, 0.00000000, 0.00000000, 0.84250847, -0.53864032, 0.00674128, -0.00079712
424169105.175863, -0.01052856, 0.00733948, 0.99607849, 0.01523834, -0.00718681, -0.01625540, -169.22206116, 136.02783203, 190.87960815, -0.01042626, 0.00866727, 0.99990809, -0.00019386, 0.00089999, -0.00978052, 0.00000000, 0.00000000, 0.00000000, 0.84255567, -0.53856659, 0.00672661, -0.00084375
424169105.193613, -0.01022339, 0.00489807, 0.99557495, 0.02129863, 0.00447597, -0.01250594, -168.70874023, 137.90997314, 192.37736511, -0.01031476, 0.00873140, 0.99990869, -0.00021380, -0.00139192, -0.00383019, 0.00000000, 0.00000000, 0.00000000, 0.84256332, -0.53855490, 0.00669689, -0.00090089
424169105.207289, -0.01077271, 0.00637817, 0.99234009, 0.01067368, -0.00020746, -0.02433357, -170.07757568, 137.22555542, 190.71319580, -0.01031606, 0.00878224, 0.99990821, 0.00009267, -0.00388416, -0.00433327, 0.00000000, 0.00000000, 0.00000000, 0.84256544, -0.53855139, 0.00671113, -0.00092198
424169105.222729, -0.01252747, 0.00837708, 0.99261475, 0.01762001, -0.00724966, -0.02437884, -171.78862000, 137.90997314, 193.70869446, -0.01032954, 0.00879991, 0.99990791, -0.00213689, -0.00335252, -0.00906320, 0.00000000, 0.00000000, 0.00000000, 0.84259759, -0.53850093, 0.00672151, -0.00092620
424169105.238811, -0.01252747, 0.00837708, 0.99261475, 0.01293737, -0.00726670, -0.03141145, -170.59088135, 137.73886108, 193.20944214, -0.01030536, 0.00883229, 0.99990791, -0.00170331, -0.00170643, -0.00657598, 0.00000000, 0.00000000, 0.00000000, 0.84259368, -0.53850704, 0.00672005, -0.00094630
424169105.254441, -0.01100159, 0.00613403, 0.99258423, 0.01638963, -0.00954903, -0.01977477, -169.05094910, 137.22555542, 192.37736511, -0.01028078, 0.00884801, 0.99990803, -0.00322325, -0.00071508, -0.00628618, 0.00000000, 0.00000000, 0.00000000, 0.84263477, -0.53844280, 0.00671385, -0.00096006
424169105.271288, -0.01420593, 0.00791931, 0.99562073, 0.01189847, 0.00330205, -0.02193459, -168.53764343, 137.05444336, 192.87660217, -0.01020874, 0.00890076, 0.99990827, -0.00079284, -0.00276673, -0.00732405, 0.00000000, 0.00000000, 0.00000000, 0.84263595, -0.53844107, 0.00669770, -0.00100169
424169105.287508, -0.01152039, 0.00688171, 0.99258423, 0.01419545, -0.00021225, -0.02196921, -168.19543457, 135.34341431, 191.87811279, -0.01020400, 0.00893796, 0.99990797, -0.00400193, -0.00101865, -0.00428726, 0.00000000, 0.00000000, 0.00000000, 0.84266835, -0.53839023, 0.00670566, -0.00101905
424169105.302151, -0.01083374, 0.00857544, 0.99534607, 0.01307399, 0.00449888, -0.01608310, -168.19543457, 135.34341431, 191.87811279, -0.01016081, 0.00898971, 0.99990797, -0.00062716, -0.00165023, -0.00556898, 0.00000000, 0.00000000, 0.00000000, 0.84268745, -0.53836032, 0.00670135, -0.00105272
424169105.318351, -0.01083374, 0.00857544, 0.99534607, 0.01296187, -0.00370765, -0.02204059, -167.51101685, 137.05444336, 191.21244812, -0.01019685, 0.00903852, 0.99990714, -0.00136931, -0.00067671, -0.00904717, 0.00000000, 0.00000000, 0.00000000, 0.84268639, -0.53836162, 0.00672968, -0.00106357
424169105.333717, -0.01449585, 0.00814819, 0.99261475, 0.02237481, -0.00375852, -0.02194312, -168.53764343, 136.37004089, 191.54527283, -0.01017104, 0.00901738, 0.99990761, -0.00211229, -0.00114385, -0.00703347, 0.00000000, 0.00000000, 0.00000000, 0.84269264, -0.53835204, 0.00671310, -0.00106169
424169105.349386, -0.01350403, 0.00814819, 0.99212646, 0.00476067, -0.00252468, -0.02676184, -169.05094910, 136.54113770, 193.37585449, -0.01024875, 0.00913274, 0.99990577, -0.00424710, -0.00098455, -0.00729103, 0.00000000, 0.00000000, 0.00000000, 0.84268954, -0.53835604, 0.00677691, -0.00108935
424169105.365957, -0.01243591, 0.00567627, 0.99583435, 0.01067501, 0.00219152, -0.01381888, -170.76199341, 137.56776428, 192.71018982, -0.01022960, 0.00915235, 0.99990577, -0.00327443, -0.00100415, -0.00777933, 0.00000000, 0.00000000, 0.00000000, 0.84272049, -0.53830760, 0.00677406, -0.00110315
424169105.381019, -0.01113892, 0.01078796, 0.99287415, 0.01309530, 0.00325998, -0.02774242, -170.41978455, 137.22555542, 192.37736511, -0.01032070, 0.00912152, 0.99990511, -0.00211521, -0.00344525, -0.00407079, 0.00000000, 0.00000000, 0.00000000, 0.84273294, -0.53828780, 0.00680412, -0.00106580
424169105.397723, -0.01298523, 0.00712585, 0.99661255, 0.01304816, 0.00214305, -0.01961445, -170.24867249, 138.42327881, 191.54527283, -0.01032839, 0.00922473, 0.99990410, -0.00267210, -0.00182422, -0.00878473, 0.00000000, 0.00000000, 0.00000000, 0.84276685, -0.53823424, 0.00683507, -0.00110765
424169105.412441, -0.01298523, 0.00712585, 0.99661255, 0.01534487, -0.00137153, -0.01964880, -167.85322571, 137.39665222, 191.87811279, -0.01033707, 0.00921009, 0.99990416, -0.00069503, -0.00185535, -0.00657225, 0.00000000, 0.00000000, 0.00000000, 0.84280761, -0.53817042, 0.00683471, -0.00109966
424169105.428821, -0.01132202, 0.00834656, 0.99259949, 0.01178529, -0.00370126, -0.02205257, -166.48439026, 137.73886108, 191.87811279, -0.01036153, 0.00924660, 0.99990356, -0.00262369, -0.00212074, -0.00329102, 0.00000000, 0.00000000, 0.00000000, 0.84279870, -0.53818411, 0.00685486, -0.00110836
424169105.444275, -0.01174927, 0.00639343, 0.99433899, 0.01765782, -0.00491513, -0.02433943, -166.48439026, 137.73886108, 191.87811279, -0.01037536, 0.00923775, 0.99990350, -0.00094667, -0.00089120, -0.00730402, 0.00000000, 0.00000000, 0.00000000, 0.84279156, -0.53819527, 0.00685832, -0.00110082
424169105.460350, -0.01097107, 0.00491333, 0.99456787, 0.00592101, -0.00250257, -0.02209385, -168.53764343, 135.34341431, 193.20944214, -0.01032567, 0.00921547, 0.99990422, -0.00142360, -0.00282204, -0.00556523, 0.00000000, 0.00000000, 0.00000000, 0.84279662, -0.53818767, 0.00683137, -0.00110486
424169105.476356, -0.01570129, 0.00770569, 0.99313354, 0.01315229, 0.01036343, -0.01132882, -166.82659912, 136.02783203, 192.87660217, -0.01030389, 0.00926763, 0.99990398, -0.00321539, 0.00008601, -0.00327616, 0.00000000, 0.00000000, 0.00000000, 0.84280953, -0.53816733, 0.00683621, -0.00113287
424169105.492892, -0.01570129, 0.00770569, 0.99313354, 0.00601821, 0.00452977, -0.01732013, -168.19543457, 136.71224976, 191.21244812, -0.01030533, 0.00910188, 0.99990547, 0.00180618, -0.00449372, -0.00359810, 0.00000000, 0.00000000, 0.00000000, 0.84280930, -0.53816839, 0.00679221, -0.00106262
424169105.507602, -0.01493835, 0.00669861, 0.99487305, 0.01882509, -0.00370366, -0.01615980, -170.24867249, 136.71224976, 193.20944214, -0.01041832, 0.00908276, 0.99990445, -0.00528298, -0.00137708, -0.00677093, 0.00000000, 0.00000000, 0.00000000, 0.84280844, -0.53816928, 0.00683468, -0.00102415
424169105.523422, -0.01205444, 0.00860596, 0.99485779, 0.01536511, -0.00140721, -0.02546861, -171.44641113, 137.22555542, 193.70869446, -0.01047618, 0.00906788, 0.99990404, -0.00446217, -0.00236927, -0.00503096, 0.00000000, 0.00000000, 0.00000000, 0.84281468, -0.53815928, 0.00685505, -0.00100239
424169105.539051, -0.01008606, 0.00831604, 0.99409485, 0.01186891, 0.00095315, -0.02430188, -170.07757568, 138.25218201, 194.37435913, -0.01045004, 0.00908483, 0.99990416, -0.00160440, -0.00047887, -0.00504634, 0.00000000, 0.00000000, 0.00000000, 0.84281625, -0.53815689, 0.00684859, -0.00101659
424169105.554884, -0.01126099, 0.00590515, 0.99385071, 0.01417308, 0.00222933, -0.00447091, -168.53764343, 137.73886108, 193.54226685, -0.01040813, 0.00903899, 0.99990499, 0.00061199, -0.00195891, -0.00431477, 0.00000000, 0.00000000, 0.00000000, 0.84284428, -0.53811338, 0.00681854, -0.00100890
424169105.571438, -0.01126099, 0.00590515, 0.99385071, 0.01298078, -0.00254066, -0.02202088, -168.36653137, 136.54113770, 190.71319580, -0.01042516, 0.00899875, 0.99990517, -0.00059169, -0.00262058, -0.00706154, 0.00000000, 0.00000000, 0.00000000, 0.84282410, -0.53814507, 0.00681493, -0.00098711
424169105.587264, -0.01103210, 0.00688171, 0.99433899, 0.00953731, 0.00332922, -0.01963123, -167.51101685, 135.34341431, 189.54827881, -0.01036418, 0.00902774, 0.99990553, -0.00089681, -0.00312259, -0.00605483, 0.00000000, 0.00000000, 0.00000000, 0.84283571, -0.53812706, 0.00679701, -0.00101587
424169105.602378, -0.01379395, 0.00961304, 0.99412537, 0.02114577, -0.00726138, -0.02317856, -167.51101685, 135.34341431, 189.54827881, -0.01036871, 0.00894733, 0.99990624, -0.00066339, -0.00206562, -0.00556722, 0.00000000, 0.00000000, 0.00000000, 0.84286716, -0.53807812, 0.00677722, -0.00098116
424169105.618457, -0.01008606, 0.00759888, 0.99011230, 0.00954024, 0.00452524, -0.01495551, -167.51101685, 136.71224976, 190.54678345, -0.01035505, 0.00906964, 0.99990523, -0.00343890, 0.00054339, -0.00577989, 0.00000000, 0.00000000, 0.00000000, 0.84288197, -0.53805448, 0.00680434, -0.00103658
424169105.633822, -0.01168823, 0.00468445, 0.99331665, 0.01173815, -0.00842038, -0.03027908, -169.73536682, 137.22555542, 191.37886047, -0.01029227, 0.00904314, 0.99990612, -0.00072458, -0.00266497, -0.00631483, 0.00000000, 0.00000000, 0.00000000, 0.84289376, -0.53803642, 0.00677073, -0.00104245
424169105.649899, -0.01168823, 0.00468445, 0.99331665, 0.01414698, -0.00372843, -0.02435621, -170.07757568, 137.90997314, 191.71170044, -0.01024698, 0.00906434, 0.99990642, -0.00154807, -0.00070253, -0.00680339, 0.00000000, 0.00000000, 0.00000000, 0.84290863, -0.53801324, 0.00675732, -0.00106375
424169105.665724, -0.01226807, 0.00691223, 0.99185181, 0.01307506, 0.00329566, -0.02192261, -170.24867249, 137.39665222, 190.54678345, -0.01018147, 0.00901375, 0.99990755, -0.00130840, -0.00240670, -0.00331025, 0.00000000, 0.00000000, 0.00000000, 0.84295044, -0.53794826, 0.00671601, -0.00106057
424169105.681250, -0.01368713, 0.00616455, 0.99784851, 0.01180420, -0.00253426, -0.02203286, -169.73536682, 137.90997314, 192.71018982, -0.01023873, 0.00903049, 0.99990678, -0.00202934, -0.00211826, -0.00805500, 0.00000000, 0.00000000, 0.00000000, 0.84294315, -0.53795934, 0.00674467, -0.00105214
424169105.698067, -0.01519775, 0.00770569, 0.99337769, 0.00366504, 0.00454255, -0.01734437, -168.70874023, 138.25218201, 192.37736511, -0.01024685, 0.00895381, 0.99990743, -0.00344028, -0.00278926, -0.00205890, 0.00000000, 0.00000000, 0.00000000, 0.84295994, -0.53793331, 0.00672743, -0.00101784
424169105.713504, -0.01446533, 0.00790405, 0.99861145, 0.01057621, -0.00723980, -0.02910782, -169.22206116, 138.76548767, 192.54377747, -0.01034059, 0.00891375, 0.99990678, -0.00537596, -0.00047563, -0.00527790, 0.00000000, 0.00000000, 0.00000000, 0.84296124, -0.53793099, 0.00675616, -0.00097575
424169105.729780, -0.01446533, 0.00790405, 0.99861145, 0.00945928, -0.00253586, -0.02438523, -168.70874023, 136.54113770, 190.04753113, -0.01035314, 0.00890252, 0.99990678, -0.00197596, 0.00069526, -0.00852799, 0.00000000, 0.00000000, 0.00000000, 0.84298153, -0.53789918, 0.00675840, -0.00096790
424169105.744566, -0.01060486, 0.00906372, 0.99409485, 0.01877102, -0.00961161, -0.02789794, -168.70874023, 136.54113770, 190.04753113, -0.01033529, 0.00893319, 0.99990666, -0.00051371, 0.00014579, -0.00755134, 0.00000000, 0.00000000, 0.00000000, 0.84303299, -0.53781848, 0.00675903, -0.00098628
424169105.760520, -0.01226807, 0.00762939, 0.99610901, 0.00943451, -0.00609438, -0.03375637, -167.33990479, 135.85671997, 190.38035583, -0.01021472, 0.00901669, 0.99990720, -0.00039014, 0.00004703, -0.00581233, 0.00000000, 0.00000000, 0.00000000, 0.84307635, -0.53775074, 0.00673057, -0.00105444
424169105.776701, -0.01138306, 0.01054382, 0.99311829, 0.01644342, -0.00724327, -0.02439109, -168.19543457, 135.68562317, 188.88261414, -0.01016061, 0.00889526, 0.99990880, -0.00210746, -0.00126587, -0.00379981, 0.00000000, 0.00000000, 0.00000000, 0.84313475, -0.53765993, 0.00667500, -0.00101852
424169105.791869, -0.01057434, 0.00878906, 0.99760437, 0.01181458, -0.00495454, -0.03604003, -167.51101685, 136.37004089, 190.21394348, -0.01014316, 0.00890161, 0.99990892, -0.00243008, 0.00094030, -0.00827075, 0.00000000, 0.00000000, 0.00000000, 0.84315800, -0.53762353, 0.00666931, -0.00102618
424169105.807786, -0.01057434, 0.00878906, 0.99760437, 0.01294989, -0.00368608, -0.01854892, -168.87985229, 137.39665222, 191.87811279, -0.01007576, 0.00897009, 0.99990898, -0.00145989, -0.00135595, -0.00730952, 0.00000000, 0.00000000, 0.00000000, 0.84320454, -0.53755056, 0.00665920, -0.00107374
424169105.823829, -0.01272583, 0.00640869, 0.99435425, 0.01647431, -0.00609704, -0.02786332, -170.59088135, 137.73886108, 190.87960815, -0.01001555, 0.00898793, 0.99990946, -0.00272554, -0.00184682, -0.00480752, 0.00000000, 0.00000000, 0.00000000, 0.84324300, -0.53749044, 0.00663853, -0.00109792
424169105.839324, -0.01205444, 0.00883484, 0.99459839, 0.01994628, -0.00841479, -0.02204618, -170.93309021, 137.39665222, 192.54377747, -0.00994681, 0.00899732, 0.99991006, -0.00277902, -0.00258863, -0.00555580, 0.00000000, 0.00000000, 0.00000000, 0.84325348, -0.53747428, 0.00661205, -0.00112048
424169105.854771, -0.01004028, 0.00708008, 0.99559021, 0.00830533, -0.00136913, -0.02554185, -169.05094910, 138.93659973, 193.37585449, -0.00987361, 0.00906116, 0.99991018, -0.00218084, -0.00022632, -0.00531181, 0.00000000, 0.00000000, 0.00000000, 0.84327721, -0.53743711, 0.00659829, -0.00116736
424169105.870796, -0.01106262, 0.00787354, 0.99060059, 0.00369487, 0.00689146, -0.01497682, -169.22206116, 137.05444336, 191.87811279, -0.00985801, 0.00898983, 0.99991101, -0.00183023, -0.00407650, -0.00233714, 0.00000000, 0.00000000, 0.00000000, 0.84329567, -0.53740851, 0.00657251, -0.00114170
424169105.887431, -0.01106262, 0.00787354, 0.99060059, 0.01198662, 0.01155173, -0.00899323, -168.70874023, 135.51451111, 191.04602051, -0.00990955, 0.00887720, 0.99991149, -0.00232800, -0.00249903, -0.00329895, 0.00000000, 0.00000000, 0.00000000, 0.84329083, -0.53741635, 0.00656398, -0.00108030
424169105.902585, -0.01391602, 0.00523376, 0.99433899, 0.01643011, -0.00601848, -0.01505964, -168.70874023, 135.51451111, 191.04602051, -0.01003422, 0.00880314, 0.99991089, -0.00241695, -0.00337101, -0.00506838, 0.00000000, 0.00000000, 0.00000000, 0.84327563, -0.53743992, 0.00659668, -0.00101538
424169105.918319, -0.01611328, 0.00454712, 0.98960876, 0.01062894, -0.00373056, -0.02788463, -168.70874023, 136.54113770, 188.71620178, -0.00998327, 0.00880581, 0.99991137, -0.00393275, -0.00357205, -0.00557240, 0.00000000, 0.00000000, 0.00000000, 0.84329121, -0.53741569, 0.00657588, -0.00103039
424169105.934359, -0.01026917, 0.00613403, 0.99234009, 0.01300501, -0.00258353, -0.02900475, -168.19543457, 135.68562317, 190.54678345, -0.01004172, 0.00871926, 0.99991155, -0.00607156, -0.00417214, -0.01030280, 0.00000000, 0.00000000, 0.00000000, 0.84330867, -0.53738838, 0.00657724, -0.00097841
424169105.949920, -0.01136780, 0.01005554, 0.99362183, 0.01765782, -0.00491513, -0.02433943, -168.70874023, 138.25218201, 191.04602051, -0.01001884, 0.00871808, 0.99991179, -0.00223396, -0.00232465, -0.00531342, 0.00000000, 0.00000000, 0.00000000, 0.84333210, -0.53735172, 0.00656723, -0.00098434
424169105.965995, -0.01136780, 0.01005554, 0.99362183, 0.01527722, -0.00605496, -0.02205550, -170.93309021, 138.08106995, 190.54678345, -0.00999015, 0.00872171, 0.99991208, -0.00156076, -0.00035989, -0.00830439, 0.00000000, 0.00000000, 0.00000000, 0.84333081, -0.53735386, 0.00655611, -0.00099356
424169105.981453, -0.01126099, 0.00636292, 0.99858093, 0.00486160, 0.00450048, -0.02315219, -170.24867249, 138.76548767, 192.21093750, -0.00993036, 0.00879414, 0.99991202, -0.00084235, -0.00145466, -0.00407767, 0.00000000, 0.00000000, 0.00000000, 0.84333946, -0.53734027, 0.00655034, -0.00104028
424169105.997319, -0.01101685, 0.00662231, 0.99359131, 0.00608665, 0.00800999, -0.02075295, -170.59088135, 137.73886108, 191.87811279, -0.00986298, 0.00874005, 0.99991316, -0.00139801, -0.00237714, -0.00133223, 0.00000000, 0.00000000, 0.00000000, 0.84338802, -0.53726458, 0.00650730, -0.00103616
424169106.013003, -0.01318359, 0.00617981, 0.99560547, 0.01766049, -0.00371884, -0.01966398, -170.76199341, 137.90997314, 192.37736511, -0.00996908, 0.00874371, 0.99991208, -0.00104777, -0.00212140, -0.00632077, 0.00000000, 0.00000000, 0.00000000, 0.84338940, -0.53726191, 0.00655303, -0.00100922
424169106.029308, -0.01181030, 0.00883484, 0.99259949, 0.00831199, -0.00018056, -0.02203020, -168.53764343, 137.73886108, 190.21394348, -0.01008123, 0.00870046, 0.99991131, -0.00310236, -0.00252065, -0.00430586, 0.00000000, 0.00000000, 0.00000000, 0.84337432, -0.53728523, 0.00658873, -0.00096067
424169106.044906, -0.01181030, 0.00883484, 0.99259949, 0.01529906, -0.00369194, -0.01736035, -168.53764343, 137.73886108, 190.21394348, -0.01006809, 0.00865565, 0.99991184, -0.00168118, -0.00226221, -0.00557286, 0.00000000, 0.00000000, 0.00000000, 0.84340108, -0.53724346, 0.00657110, -0.00094563
424169106.060849, -0.01397705, 0.00791931, 0.99562073, 0.01175839, -0.00485441, -0.01974441, -166.14218140, 136.37004089, 191.54527283, -0.01006308, 0.00865078, 0.99991196, -0.00415811, -0.00073147, -0.00629012, 0.00000000, 0.00000000, 0.00000000, 0.84341667, -0.53721903, 0.00656766, -0.00094511
424169106.076368, -0.01448059, 0.00793457, 0.99237061, 0.00719213, 0.00332735, -0.02198333, -167.85322571, 136.71224976, 189.88111877, -0.00999316, 0.00871472, 0.99991208, -0.00398389, -0.00079541, -0.00429136, 0.00000000, 0.00000000, 0.00000000, 0.84342078, -0.53721265, 0.00655534, -0.00099091
424169106.093076, -0.01388550, 0.00399780, 0.99433899, 0.01419012, 0.00099762, -0.01496590, -169.39315796, 137.56776428, 192.04452515, -0.01007641, 0.00871192, 0.99991131, -0.00440418, -0.00077735, -0.00754067, 0.00000000, 0.00000000, 0.00000000, 0.84343287, -0.53719330, 0.00658967, -0.00096751
424169106.107838, -0.01103210, 0.00688171, 0.99484253, 0.01178928, -0.00370845, -0.02321664, -170.93309021, 137.73886108, 191.21244812, -0.01018579, 0.00857542, 0.99991137, -0.00369971, -0.00457762, -0.00557236, 0.00000000, 0.00000000, 0.00000000, 0.84343817, -0.53718500, 0.00659913, -0.00088063
424169106.123597, -0.01040649, 0.01077271, 0.99461365, 0.01303511, 0.00336703, -0.01028300, -169.56427002, 137.73886108, 191.21244812, -0.01008602, 0.00859007, 0.99991226, -0.00137333, -0.00341734, -0.00708387, 0.00000000, 0.00000000, 0.00000000, 0.84347202, -0.53713226, 0.00656093, -0.00091402
424169106.139459, -0.01040649, 0.01077271, 0.99461365, 0.01645940, -0.00727176, -0.02904710, -170.41978455, 138.93659973, 191.71170044, -0.01007776, 0.00858786, 0.99991232, -0.00174780, 0.00050638, -0.00680931, 0.00000000, 0.00000000, 0.00000000, 0.84348398, -0.53711353, 0.00655683, -0.00091545
424169106.154993, -0.01419067, 0.00715637, 0.99809265, 0.01765090, -0.00610343, -0.02785107, -169.73536682, 138.25218201, 192.71018982, -0.00994967, 0.00871222, 0.99991256, -0.00045682, 0.00206049, -0.00529890, 0.00000000, 0.00000000, 0.00000000, 0.84349124, -0.53710222, 0.00653619, -0.00100239
424169106.171935, -0.01078796, 0.00733948, 0.99508667, 0.01423699, 0.00211508, -0.02309413, -169.22206116, 135.34341431, 190.21394348, -0.00995421, 0.00863365, 0.99991316, -0.00423646, -0.00147728, -0.00182053, 0.00000000, 0.00000000, 0.00000000, 0.84353167, -0.53703903, 0.00651693, -0.00096852
424169106.187370, -0.01274109, 0.00691223, 0.99360657, 0.01645274, -0.00846006, -0.03255848, -169.22206116, 135.34341431, 190.21394348, -0.00991282, 0.00864375, 0.99991351, -0.00087514, -0.00130427, -0.00482684, 0.00000000, 0.00000000, 0.00000000, 0.84356180, -0.53699185, 0.00650213, -0.00098426
424169106.203061, -0.01292419, 0.00445557, 0.99385071, 0.00950243, 0.00219072, -0.01499493, -167.85322571, 137.05444336, 192.54377747, -0.00986564, 0.00862435, 0.99991417, -0.00086129, -0.00325326, -0.00159261, 0.00000000, 0.00000000, 0.00000000, 0.84359692, -0.53693696, 0.00647696, -0.00098917
424169106.218870, -0.01292419, 0.00445557, 0.99385071, 0.01884506, -0.00373934, -0.02197960, -167.85322571, 137.05444336, 190.21394348, -0.00991694, 0.00860362, 0.99991381, -0.00309881, -0.00095897, -0.00679553, 0.00000000, 0.00000000, 0.00000000, 0.84359734, -0.53693615, 0.00649303, -0.00096666
424169106.234373, -0.01103210, 0.00735474, 0.99484253, 0.01647698, -0.00490155, -0.02318788, -167.16880798, 137.39665222, 190.87960815, -0.00983816, 0.00861045, 0.99991453, -0.00308604, -0.00415488, -0.00606382, 0.00000000, 0.00000000, 0.00000000, 0.84362637, -0.53689088, 0.00646158, -0.00099103
424169106.250263, -0.00979614, 0.00706482, 0.99758911, 0.00830134, -0.00136221, -0.02437778, -168.87985229, 136.37004089, 191.87811279, -0.00979748, 0.00868142, 0.99991429, -0.00123462, -0.00132669, -0.00507179, 0.00000000, 0.00000000, 0.00000000, 0.84364339, -0.53686403, 0.00646344, -0.00103210
424169106.265965, -0.01292419, 0.00421143, 0.99484253, 0.01648390, -0.00371245, -0.01967623, -171.61750793, 139.10769653, 192.87660217, -0.00978236, 0.00860312, 0.99991512, -0.00001378, -0.00153831, -0.00232603, 0.00000000, 0.00000000, 0.00000000, 0.84366893, -0.53682428, 0.00643599, -0.00100343
424169106.281584, -0.01284790, 0.01081848, 0.99389648, 0.01424578, 0.00570236, -0.00906753, -171.27529907, 138.08106995, 192.54377747, -0.00971451, 0.00862833, 0.99991560, -0.00186691, 0.00069479, -0.00556134, 0.00000000, 0.00000000, 0.00000000, 0.84369604, -0.53678189, 0.00641408, -0.00103260
424169106.297723, -0.01284790, 0.01081848, 0.99389648, 0.01765782, -0.00491513, -0.02433943, -171.27529907, 138.42327881, 193.20944214, -0.00977121, 0.00862061, 0.99991512, -0.00275625, -0.00048767, -0.00855158, 0.00000000, 0.00000000, 0.00000000, 0.84368984, -0.53679140, 0.00643594, -0.00101405
424169106.313338, -0.01177979, 0.00836182, 0.99560547, 0.00600862, 0.00214544, -0.02550722, -170.59088135, 136.71224976, 190.54678345, -0.00975913, 0.00870347, 0.99991453, -0.00177651, -0.00063157, -0.00281367, 0.00000000, 0.00000000, 0.00000000, 0.84371667, -0.53674895, 0.00645304, -0.00105257
424169106.329201, -0.01078796, 0.00686646, 0.99359131, 0.00954211, 0.00692395, -0.00444082, -167.33990479, 136.88334656, 190.38035583, -0.00970730, 0.00866746, 0.99991530, -0.00207249, -0.00030564, -0.00430985, 0.00000000, 0.00000000, 0.00000000, 0.84375868, -0.53668328, 0.00642142, -0.00105179
424169106.344900, -0.01135254, 0.00956726, 0.99362183, 0.00950243, 0.00219072, -0.01499493, -167.33990479, 136.88334656, 190.38035583, -0.00973456, 0.00859493, 0.99991566, -0.00105340, -0.00172847, -0.00632437, 0.00000000, 0.00000000, 0.00000000, 0.84375433, -0.53669029, 0.00641347, -0.00101382
424169106.360702, -0.01150513, 0.00735474, 0.99559021, 0.00474735, -0.00130016, -0.01743066, -168.02432251, 136.54113770, 191.71170044, -0.00978573, 0.00853645, 0.99991566, -0.00268070, -0.00260078, -0.00456961, 0.00000000, 0.00000000, 0.00000000, 0.84373975, -0.53671321, 0.00641939, -0.00097525
424169106.377027, -0.01150513, 0.00735474, 0.99559021, 0.02004348, -0.00138271, -0.01727220, -167.33990479, 135.51451111, 189.04902649, -0.00981133, 0.00852265, 0.99991554, -0.00247200, -0.00087800, -0.00778908, 0.00000000, 0.00000000, 0.00000000, 0.84376159, -0.53667882, 0.00642645, -0.00096282
424169106.393388, -0.01029968, 0.00688171, 0.99110413, 0.01066676, -0.00139603, -0.02784521, -166.99769592, 136.88334656, 190.71319580, -0.00986785, 0.00845145, 0.99991560, -0.00136262, -0.00306510, -0.00260114, 0.00000000, 0.00000000, 0.00000000, 0.84377174, -0.53666289, 0.00643117, -0.00091773
424169106.408235, -0.01513672, 0.00573730, 0.99409485, 0.01183669, 0.00101040, -0.01499013, -170.07757568, 137.22555542, 192.04452515, -0.00975916, 0.00846276, 0.99991655, -0.00054052, -0.00158105, -0.00881244, 0.00000000, 0.00000000, 0.00000000, 0.84379581, -0.53662549, 0.00638830, -0.00095195
424169106.423344, -0.01251221, 0.00788879, 0.99261475, 0.01175972, -0.00605709, -0.02558392, -171.27529907, 137.73886108, 190.87960815, -0.00983643, 0.00833802, 0.99991685, -0.00530029, -0.00260072, -0.00582201, 0.00000000, 0.00000000, 0.00000000, 0.84380475, -0.53661156, 0.00638742, -0.00087870
424169106.439578, -0.00910950, 0.00854492, 0.99583435, 0.01181511, -0.00135235, -0.01968529, -170.76199341, 139.62101746, 191.04602051, -0.00984317, 0.00838189, 0.99991643, -0.00346249, 0.00146003, -0.00453984, 0.00000000, 0.00000000, 0.00000000, 0.84381500, -0.53659524, 0.00640202, -0.00089552
424169106.455004, -0.00910950, 0.00854492, 0.99583435, 0.00940895, -0.00845021, -0.03728745, -170.41978455, 136.88334656, 192.71018982, -0.00990074, 0.00840491, 0.99991566, -0.00264198, 0.00021631, -0.00704152, 0.00000000, 0.00000000, 0.00000000, 0.84382021, -0.53658670, 0.00643248, -0.00088985
