Timestamp, AccelerationX, AccelerationY, AccelerationZ, GyroX, GyroY, GyroZ, MagnetometerX, MagnetometerY, MagnetometerZ, DMUserAccelerationX, DMUserAccelerationY, DMUserAccelerationZ, DMGravityX, DMGravityY, DMGravityZ, DMMagX, DMMagY, DMMagZ, DMAttitudeX, DMAttitudeY, DMAttitudeZ, DMAttitudeW 
424170060.645443, 0.12243652, -0.56413269, -0.75759888, -0.07911879, 0.04927887, -0.02910036, -157.75807190, 152.62493896, 234.97996521, 0.13043423, -0.52914149, -0.83844870, 0.00069980, -0.01578038, 0.06171528, 0.00000000, 0.00000000, 0.00000000, 0.08321405, 0.27175556, 0.82291609, 0.49196895
424170060.659237, 0.12243652, -0.56413269, -0.75759888, -0.11772717, 0.06110437, -0.03861690, -158.27139282, 152.11161804, 235.47920227, 0.13117962, -0.52837449, -0.83881605, -0.00904826, -0.02544327, 0.07456431, 0.00000000, 0.00000000, 0.00000000, 0.08262832, 0.27159630, 0.82306817, 0.49190120
424170060.675084, 0.15788269, -0.56365967, -0.75953674, -0.14150467, 0.04965863, -0.02276151, -157.58697510, 152.45382690, 236.47770691, 0.13205476, -0.52673471, -0.83970952, 0.00461821, -0.03105035, 0.07333686, 0.00000000, 0.00000000, 0.00000000, 0.08176686, 0.27103396, 0.82328846, 0.49198666
424170060.691893, 0.15670776, -0.55535889, -0.74972534, -0.17715081, 0.03245461, -0.00479902, -158.95579529, 152.11161804, 235.47920227, 0.13350788, -0.52627116, -0.83977038, 0.03555950, -0.03401628, 0.09093004, 0.00000000, 0.00000000, 0.00000000, 0.08098045, 0.27121390, 0.82332173, 0.49196190
424170060.706686, 0.12857056, -0.54666138, -0.75050354, -0.21238230, 0.03732873, -0.00275744, -159.46911621, 151.59831238, 236.97695923, 0.13392143, -0.52392346, -0.84117138, 0.02278633, -0.03143546, 0.09144603, 0.00000000, 0.00000000, 0.00000000, 0.08006013, 0.27019379, 0.82377528, 0.49191460
424170060.723112, 0.12316895, -0.53890991, -0.76913452, -0.28275793, 0.05172445, -0.00208765, -156.56034851, 150.74278259, 235.81204224, 0.13433199, -0.52256215, -0.84195232, -0.00576143, -0.02409926, 0.09144881, 0.00000000, 0.00000000, 0.00000000, 0.07939020, 0.26966836, 0.82414274, 0.49169596
424170060.738598, 0.12316895, -0.53890991, -0.76913452, -0.34846637, 0.06496329, 0.00443097, -157.41586304, 151.94052124, 234.31430054, 0.13474995, -0.51897556, -0.84410119, -0.00854450, -0.02081935, 0.09642052, 0.00000000, 0.00000000, 0.00000000, 0.07810810, 0.26804577, 0.82479230, 0.49169935
424170060.755175, 0.12792969, -0.53385925, -0.83480835, -0.32266647, 0.13253914, 0.00699240, -157.41586304, 151.94052124, 234.31430054, 0.13540365, -0.51441997, -0.84678090, -0.01591207, -0.01911883, 0.04450431, 0.00000000, 0.00000000, 0.00000000, 0.07643106, 0.26602224, 0.82560289, 0.49170147
424170060.769960, 0.13589478, -0.51725769, -0.87466431, -0.25344239, 0.19046981, -0.00179284, -156.90255737, 152.11161804, 234.14787292, 0.13645366, -0.51027793, -0.84911531, -0.00739482, -0.01468545, -0.01906399, 0.00000000, 0.00000000, 0.00000000, 0.07463302, 0.26433359, 0.82645670, 0.49145395
424170060.786125, 0.16191101, -0.52717590, -0.85966492, -0.20598539, 0.21954035, 0.02246536, -156.38923645, 151.94052124, 236.31129456, 0.13849004, -0.50636488, -0.85112584, -0.00259525, -0.01089283, -0.02353850, 0.00000000, 0.00000000, 0.00000000, 0.07245516, 0.26303487, 0.82725755, 0.49112915
424170060.802724, 0.15496826, -0.51884460, -0.82009888, -0.19255560, 0.17986244, 0.03590953, -158.44248962, 151.25610352, 235.64562988, 0.14149560, -0.50362438, -0.85225666, 0.02041541, -0.02355150, -0.00740823, 0.00000000, 0.00000000, 0.00000000, 0.07014900, 0.26258480, 0.82791115, 0.49060317
424170060.818298, 0.15496826, -0.51884460, -0.82009888, -0.26841974, 0.14283785, 0.02169677, -159.64021301, 151.42720032, 237.47621155, 0.14364889, -0.50102562, -0.85342741, 0.01592752, -0.01099833, 0.00989104, 0.00000000, 0.00000000, 0.00000000, 0.06822672, 0.26197597, 0.82864045, 0.48996808
424170060.833072, 0.14703369, -0.51618958, -0.82949829, -0.32565560, 0.09525595, 0.01564953, -158.27139282, 152.11161804, 236.14486694, 0.14539362, -0.49777552, -0.85503227, -0.00159480, -0.02329685, 0.03972467, 0.00000000, 0.00000000, 0.00000000, 0.06633134, 0.26092913, 0.82942593, 0.48945762
424170060.848474, 0.18310547, -0.50968933, -0.88362122, -0.31677609, 0.06373158, 0.02219905, -159.64021301, 151.76940918, 237.14337158, 0.14657694, -0.49410343, -0.85695797, 0.01682943, -0.01669980, -0.00232545, 0.00000000, 0.00000000, 0.00000000, 0.06461298, 0.25951140, 0.83020856, 0.48911424
424170060.864911, 0.17210388, -0.49682617, -0.92465210, -0.22293694, 0.05053295, 0.04739947, -158.95579529, 151.08499146, 237.80903625, 0.14724790, -0.48960713, -0.85942012, 0.03585758, -0.02008220, -0.02420111, 0.00000000, 0.00000000, 0.00000000, 0.06291519, 0.25754927, 0.83108490, 0.48888438
424170060.881410, 0.10586548, -0.50381470, -0.89709473, -0.14828374, 0.08162003, 0.04404203, -157.24476624, 151.76940918, 236.14486694, 0.14777774, -0.48551711, -0.86164659, 0.02432615, -0.01130907, -0.06300548, 0.00000000, 0.00000000, 0.00000000, 0.06139657, 0.25574823, 0.83190657, 0.48862538
424170060.897967, 0.10586548, -0.50381470, -0.89709473, -0.12327853, 0.09416964, 0.01890738, -157.75807190, 150.22947693, 235.64562988, 0.14821592, -0.48318046, -0.86288393, -0.00957456, -0.02345712, -0.05191099, 0.00000000, 0.00000000, 0.00000000, 0.06036663, 0.25478207, 0.83256781, 0.48813196
424170060.913909, 0.08819580, -0.49076843, -0.87840271, -0.10275647, 0.11955623, -0.01071549, -157.75807190, 150.22947693, 235.64562988, 0.14907016, -0.48135602, -0.86375600, -0.05654086, -0.00726093, -0.02340523, 0.00000000, 0.00000000, 0.00000000, 0.05932454, 0.25417039, 0.83308586, 0.48769454
424170060.928121, 0.11503601, -0.47795105, -0.86422729, -0.09010113, 0.17194833, -0.02134737, -156.90255737, 150.40057373, 234.48071289, 0.14879124, -0.47988927, -0.86461985, -0.05018894, -0.00669824, -0.01306572, 0.00000000, 0.00000000, 0.00000000, 0.05889090, 0.25342050, 0.83358832, 0.48727860
424170060.944531, 0.11616516, -0.49432373, -0.80842590, -0.13460016, 0.26098792, -0.00752210, -158.27139282, 150.74278259, 235.81204224, 0.15085344, -0.47847015, -0.86504889, -0.03581744, 0.00051909, 0.00082158, 0.00000000, 0.00000000, 0.00000000, 0.05750317, 0.25331590, 0.83385408, 0.48704395
424170060.959761, 0.04708862, -0.46777344, -0.76910400, -0.19480917, 0.39679343, 0.00459156, -158.10028076, 149.54505920, 236.31129456, 0.15312603, -0.47782210, -0.86500776, -0.03696087, -0.01650164, 0.05658188, 0.00000000, 0.00000000, 0.00000000, 0.05611563, 0.25366739, 0.83423417, 0.48637151
424170060.975723, 0.04708862, -0.46777344, -0.76910400, -0.21964341, 0.67099835, -0.03415291, -158.61360168, 150.05836487, 236.81053162, 0.15756910, -0.47534147, -0.86557639, -0.11048047, 0.00756802, 0.09647238, 0.00000000, 0.00000000, 0.00000000, 0.05322320, 0.25373036, 0.83484015, 0.48562344
424170060.991462, -0.04028320, -0.43756104, -0.75109863, -0.14902996, 1.08316381, -0.14175847, -159.46911621, 151.59831238, 237.64262390, 0.16527547, -0.47223535, -0.86583936, -0.17102803, 0.02323023, 0.10146558, 0.00000000, 0.00000000, 0.00000000, 0.04863231, 0.25439187, 0.83552896, 0.48457305
424170061.007188, -0.05555725, -0.45117188, -0.68295288, -0.08927049, 1.60576283, -0.33376093, -158.95579529, 150.74278259, 237.14337158, 0.17874071, -0.46939626, -0.86470741, -0.22935411, 0.03642813, 0.12819618, 0.00000000, 0.00000000, 0.00000000, 0.04152442, 0.25675284, 0.83594170, 0.48327547
424170061.022591, -0.06913757, -0.45938110, -0.63925171, 0.02860741, 2.23081233, -0.51762690, -159.46911621, 151.25610352, 236.31129456, 0.19958314, -0.46696958, -0.86145574, -0.25514039, 0.01579770, 0.17850286, 0.00000000, 0.00000000, 0.00000000, 0.03133301, 0.26132427, 0.83566752, 0.48206603
424170061.038432, -0.03683472, -0.39517212, -0.45860291, 0.10995979, 2.71141863, -0.68566358, -160.49574280, 151.59831238, 236.64411926, 0.23042312, -0.46506107, -0.85476512, -0.29956070, 0.00567997, 0.21551339, 0.00000000, 0.00000000, 0.00000000, 0.01685094, 0.26894887, 0.83447440, 0.48066102
424170061.055536, -0.03683472, -0.39517212, -0.45860291, 0.30959700, 3.03082806, -0.76670197, -162.54899597, 152.28273010, 235.97845459, 0.26882988, -0.46362323, -0.84426534, -0.30566460, 0.06845112, 0.38566247, 0.00000000, 0.00000000, 0.00000000, -0.00077682, 0.27904608, 0.83206330, 0.47937807
424170061.070833, 0.11718750, -0.30941772, -0.41062927, 0.30386375, 3.26961640, -1.04443399, -162.54899597, 152.28273010, 235.97845459, 0.31360516, -0.46341288, -0.82879448, -0.29613385, 0.13774455, 0.37241936, 0.00000000, 0.00000000, 0.00000000, -0.02110944, 0.29181698, 0.82854677, 0.47739658
424170061.086446, 0.39801025, -0.35096741, -0.22357178, -0.31068304, 3.81043597, -1.15005869, -165.45776367, 150.40057373, 235.81204224, 0.35996914, -0.46270764, -0.81013817, -0.11633205, 0.15673842, 0.50790733, 0.00000000, 0.00000000, 0.00000000, -0.04209441, 0.30521955, 0.82365218, 0.47609471
424170061.101830, 0.44578552, -0.36248779, -0.36729431, -0.58572074, 3.77265850, -1.08372680, -167.68211365, 149.20285034, 237.30978394, 0.41581860, -0.45433599, -0.78782851, -0.01780834, 0.10336857, 0.56425673, 0.00000000, 0.00000000, 0.00000000, -0.06973354, 0.31815561, 0.81795164, 0.47420391
424170061.118184, 0.52124023, -0.39302063, -0.29731750, -0.80985557, 4.16344597, -1.13307970, -169.22206116, 149.37394714, 238.80754089, 0.46956205, -0.44057724, -0.76511645, -0.02377653, 0.07808946, 0.39782214, 0.00000000, 0.00000000, 0.00000000, -0.09865627, 0.32819007, 0.81282112, 0.47104146
424170061.133517, 0.52124023, -0.39302063, -0.29731750, -1.01827269, 4.73655930, -1.13034171, -173.32855225, 149.37394714, 236.14486694, 0.52441001, -0.42285636, -0.73904443, -0.00316979, 0.02983572, 0.44172689, 0.00000000, 0.00000000, 0.00000000, -0.12985840, 0.33706764, 0.80714974, 0.46693844
424170061.148806, 0.71234131, -0.44223022, -0.15701294, -1.51921809, 5.37889724, -0.94909895, -175.38180542, 148.68952942, 236.14486694, 0.58380741, -0.40251467, -0.70508921, 0.02300410, -0.01874998, 0.46371046, 0.00000000, 0.00000000, 0.00000000, -0.16525028, 0.34662332, 0.80022617, 0.46063292
424170061.164950, 0.83708191, -0.40415955, -0.20812988, -2.07287703, 5.83522989, -0.69120402, -175.38180542, 148.34732056, 234.48071289, 0.64567804, -0.37806711, -0.66344941, 0.13171148, -0.05575554, 0.50010407, 0.00000000, 0.00000000, 0.00000000, -0.20534989, 0.35511507, 0.79288896, 0.45061270
424170061.180639, 1.01023865, -0.31939697, -0.52261353, -2.48864920, 6.15169972, -0.46679355, -176.06622314, 147.32070923, 232.81654358, 0.70753151, -0.35086882, -0.61342502, 0.12955043, -0.05329074, 0.40529516, 0.00000000, 0.00000000, 0.00000000, -0.24963731, 0.36189598, 0.78536970, 0.43578315
424170061.197869, 1.25253296, -0.15277100, -0.76591492, -1.91497368, 6.66088760, -0.29285371, -180.17272949, 146.29408264, 231.15237427, 0.76617950, -0.32251537, -0.55583519, 0.24405913, 0.00311840, 0.03322168, 0.00000000, 0.00000000, 0.00000000, -0.29656497, 0.36623983, 0.77750418, 0.41641909
424170061.214419, 1.32514954, -0.07147217, -0.75521851, -0.96138757, 6.79924521, -0.10251812, -181.37045288, 145.43855286, 229.98747253, 0.82090825, -0.30048871, -0.48560911, 0.43162474, 0.14771771, -0.28030580, 0.00000000, 0.00000000, 0.00000000, -0.34379220, 0.37283020, 0.76644655, 0.39416271
424170061.228277, 1.32514954, -0.07147217, -0.75521851, -0.12673291, 5.90127842, 0.01457095, -181.37045288, 145.43855286, 229.98747253, 0.86977452, -0.28936073, -0.39970317, 0.43472987, 0.21057960, -0.37066731, 0.00000000, 0.00000000, 0.00000000, -0.38937930, 0.38539872, 0.74994809, 0.37071480
424170061.244310, 1.28868103, -0.12608337, -0.32641602, 0.26417866, 5.96745105, -0.07684684, -183.76591492, 145.78076172, 225.32780457, 0.90466237, -0.28715959, -0.31484172, 0.38644478, 0.19449297, -0.26329854, 0.00000000, 0.00000000, 0.00000000, -0.42665268, 0.40068270, 0.73127121, 0.35023319
424170061.259810, 1.11941528, -0.25938416, -0.13446045, 0.04085342, 6.25529881, -0.16166240, -185.30584717, 145.60966492, 224.16288757, 0.92984021, -0.28763667, -0.22948283, 0.33796683, 0.10894099, 0.09529705, 0.00000000, 0.00000000, 0.00000000, -0.45942668, 0.41735562, 0.71022450, 0.33214843
424170061.275567, 0.82153320, -0.44487000, -0.15118408, -0.39751248, 6.25074108, -0.34438694, -187.87240601, 146.12297058, 222.99797058, 0.94827616, -0.28648281, -0.13674767, 0.17113912, 0.02709865, 0.00228722, 0.00000000, 0.00000000, 0.00000000, -0.49364654, 0.43351962, 0.68613677, 0.31239426
424170061.292042, 0.77410889, -0.34936523, -0.29444885, -0.64676571, 5.74038461, -0.41952297, -187.70130920, 146.63629150, 220.16889954, 0.95840299, -0.28215933, -0.04300994, -0.13686977, -0.16271068, -0.10817415, 0.00000000, 0.00000000, 0.00000000, -0.52877842, 0.44596907, 0.66104881, 0.29072227
424170061.307163, 0.77410889, -0.34936523, -0.29444885, -0.32523695, 4.85771022, -0.55078432, -189.07014465, 147.32070923, 218.83757019, 0.96002930, -0.27635935, 0.04437636, -0.15453309, -0.17469046, -0.21300124, 0.00000000, 0.00000000, 0.00000000, -0.56187995, 0.45439971, 0.63674251, 0.26901821
424170061.323324, 0.81451416, -0.18919373, -0.18577576, 0.36739186, 4.69586673, -0.81977078, -188.38572693, 146.63629150, 216.50773621, 0.95539522, -0.26980615, 0.12010227, -0.18818334, 0.07511927, -0.45571935, 0.00000000, 0.00000000, 0.00000000, -0.58996900, 0.46042123, 0.61412077, 0.25060835
424170061.338688, 1.03158569, -0.12408447, 0.11286926, 0.77086290, 4.56148149, -1.05639904, -189.75456238, 145.95187378, 214.17790222, 0.94677973, -0.25870302, 0.19152263, -0.02751397, 0.10449769, -0.20058635, 0.00000000, 0.00000000, 0.00000000, -0.61478750, 0.46668796, 0.58983514, 0.23734615
424170061.354619, 1.10162354, -0.29357910, 0.41471863, 0.91195264, 4.77560177, -1.03738513, -188.21461487, 143.38529968, 211.01599121, 0.93405938, -0.24205568, 0.26256835, 0.09752632, 0.11797122, -0.14969908, 0.00000000, 0.00000000, 0.00000000, -0.63822218, 0.47324055, 0.56289070, 0.22774962
424170061.371030, 0.90441895, -0.38587952, 0.27780151, 0.70431023, 4.71374986, -0.83923317, -188.38572693, 142.18757629, 210.18391418, 0.91609818, -0.22231580, 0.33367628, 0.18552537, -0.07126331, 0.08104236, 0.00000000, 0.00000000, 0.00000000, -0.66074966, 0.47984167, 0.53385363, 0.21945879
424170061.386498, 0.90441895, -0.38587952, 0.27780151, 0.63673732, 3.99256077, -0.67972553, -188.38572693, 142.18757629, 210.18391418, 0.89101362, -0.20526291, 0.40492204, 0.15030718, -0.11236403, -0.01522782, 0.00000000, 0.00000000, 0.00000000, -0.68255950, 0.48638827, 0.50394775, 0.20874782
424170061.402001, 0.74287415, -0.41438293, 0.13842773, 0.61647199, 3.04487250, -0.29538478, -188.38572693, 143.55641174, 206.18992615, 0.86354190, -0.19094655, 0.46672779, -0.09538393, -0.17099193, -0.37371022, 0.00000000, 0.00000000, 0.00000000, -0.70107710, 0.49178734, 0.47678550, 0.19827177
424170061.417689, 0.43750000, -0.26174927, 0.34873962, 0.69529916, 3.03125017, -0.35298336, -190.43898010, 142.87199402, 207.52125549, 0.83862239, -0.18140262, 0.51362008, -0.26695186, -0.16442257, -0.31469125, 0.00000000, 0.00000000, 0.00000000, -0.71391160, 0.49713203, 0.45512300, 0.18987632
424170061.433582, 0.52096558, 0.06311035, 0.45526123, 1.20681598, 3.63590731, -0.46557648, -188.72793579, 143.89862061, 204.52575684, 0.81464279, -0.17199837, 0.55387151, -0.37714279, -0.08975089, -0.20513190, 0.00000000, 0.00000000, 0.00000000, -0.72461516, 0.50186515, 0.43544302, 0.18290328
424170061.448776, 0.87031555, 0.14196777, 0.49154663, 1.51077374, 4.02814167, -0.76079242, -188.21461487, 144.06971741, 205.69067383, 0.78434813, -0.15780565, 0.59991282, -0.26338252, 0.22091600, -0.14465161, 0.00000000, 0.00000000, 0.00000000, -0.73616894, 0.50794853, 0.41100356, 0.17640764
424170061.465118, 0.87031555, 0.14196777, 0.49154663, 1.89465190, 3.90483145, -0.73091202, -187.53019714, 143.04309082, 203.36083984, 0.74731028, -0.13572803, 0.65046537, -0.10360302, 0.29351917, -0.06805267, 0.00000000, 0.00000000, 0.00000000, -0.74926623, 0.51364659, 0.38149883, 0.17095599
424170061.480591, 1.04183960, -0.06187439, 0.49162292, 1.94347430, 2.56640286, -0.04627322, -186.50357056, 142.01647949, 203.36083984, 0.70590234, -0.10776018, 0.70006400, 0.33334327, 0.04677080, -0.17444451, 0.00000000, 0.00000000, 0.00000000, -0.76156611, 0.51966246, 0.34915757, 0.16750219
424170061.496940, 0.68965149, 0.12565613, 0.67253113, 2.50199271, 2.06920666, 0.46219773, -185.81916809, 140.30543518, 202.36235046, 0.67202884, -0.08352533, 0.73579937, 0.18971126, 0.17690912, -0.22337873, 0.00000000, 0.00000000, 0.00000000, -0.76822590, 0.52699968, 0.32278373, 0.16706577
424170061.513278, 0.79566956, 0.12113953, 0.66986084, 3.28294499, 1.69143326, 0.84695713, -184.45033264, 139.96322632, 200.69818115, 0.64597601, -0.05997700, 0.76099783, 0.04367546, 0.18563312, -0.08846673, 0.00000000, 0.00000000, 0.00000000, -0.76913022, 0.53752918, 0.30044277, 0.17098309
424170061.528395, 1.02896118, 0.22322083, 0.86408997, 4.08542307, 2.03689160, 0.79243077, -184.45033264, 139.96322632, 200.69818115, 0.62373650, -0.03096745, 0.78102100, 0.17193307, 0.15210697, -0.11116017, 0.00000000, 0.00000000, 0.00000000, -0.76586253, 0.55133029, 0.27780116, 0.17976656
424170061.544452, 1.02896118, 0.22322083, 0.86408997, 3.37988565, 1.68952165, 0.04835075, -184.62142944, 138.76548767, 198.53475952, 0.59927034, 0.00847262, 0.80050188, 0.34094572, 0.16643888, -0.04064471, 0.00000000, 0.00000000, 0.00000000, -0.76022641, 0.56772066, 0.25035856, 0.19253479
424170061.560108, 0.93490601, -0.03649902, 1.65866089, 1.42730707, 2.00281352, -0.09365858, -184.45033264, 138.25218201, 198.70118713, 0.57536983, 0.05377052, 0.81612390, 0.50725651, -0.00497291, 0.45652011, 0.00000000, 0.00000000, 0.00000000, -0.75649939, 0.57945719, 0.22251192, 0.20597689
424170061.575703, 0.32252502, 0.16955566, 1.92514038, -0.54462337, 2.26038913, -0.01100738, -184.45033264, 138.59439087, 197.36985779, 0.55324781, 0.08148401, 0.82902181, 0.04292833, -0.03004664, 1.13249552, 0.00000000, 0.00000000, 0.00000000, -0.75629374, 0.58526122, 0.20269218, 0.21072484
424170061.592103, 0.15229797, 0.20231628, 1.67768860, -2.36168566, 2.11286626, 0.00946621, -182.22596741, 140.47653198, 197.20343018, 0.52267265, 0.08298986, 0.84848452, -0.20014761, 0.08656581, 1.07665586, 0.00000000, 0.00000000, 0.00000000, -0.75963958, 0.58922829, 0.18833961, 0.20071354
424170061.607381, 0.28259277, 0.26646423, 1.17124939, -3.17666356, 2.43718761, 0.01568682, -184.79254150, 141.67427063, 197.03701782, 0.49380261, 0.05800790, 0.86763704, -0.34150463, 0.14430839, 0.81005156, 0.00000000, 0.00000000, 0.00000000, -0.76538498, 0.58991895, 0.18404494, 0.17974686
424170061.623269, 0.28259277, 0.26646423, 1.17124939, -3.38284469, 2.46070971, -0.13970437, -184.62142944, 142.18757629, 196.87060547, 0.46311554, 0.01577281, 0.88615757, -0.18052278, 0.25069141, 0.28509185, 0.00000000, 0.00000000, 0.00000000, -0.77251239, 0.58847547, 0.18475688, 0.15095072
424170061.638914, 0.40051270, -0.32287598, 0.62614441, -2.81029195, 2.64103022, -0.49035773, -182.56817627, 142.52978516, 195.87210083, 0.42164972, -0.02885953, 0.90629941, -0.00024774, 0.02066556, -0.10091002, 0.00000000, 0.00000000, 0.00000000, -0.77992890, 0.58724834, 0.18140094, 0.11808466
424170061.655071, 0.08349609, -0.04063416, -0.19400024, -1.02651571, 1.58497313, -0.94445173, -180.00161743, 142.01647949, 194.70718384, 0.38489527, -0.07349186, 0.92002964, -0.34880823, 0.19084722, -1.09298801, 0.00000000, 0.00000000, 0.00000000, -0.78790762, 0.58242289, 0.18023953, 0.08659606
424170061.670728, 0.13615417, 0.03781128, -0.61520386, 1.41246847, 0.68243130, -1.28672332, -180.00161743, 142.01647949, 194.70718384, 0.35955626, -0.09124648, 0.92865139, -0.27606016, 0.05061232, -1.12265158, 0.00000000, 0.00000000, 0.00000000, -0.79505398, 0.57638083, 0.17549017, 0.06983919
424170061.686797, 0.31349182, 0.03416443, 0.10739136, 2.79923238, 1.00160583, -1.29951076, -179.83052063, 140.47653198, 193.87510681, 0.34651428, -0.07802612, 0.93479395, -0.21036012, 0.11583740, -1.54999781, 0.00000000, 0.00000000, 0.00000000, -0.80140300, 0.57021944, 0.16652399, 0.06980527
424170061.702221, 0.31349182, 0.03416443, 0.10739136, 3.36196843, 1.86369291, -1.07207361, -178.80389404, 139.79211426, 192.87660217, 0.33584976, -0.03428316, 0.94129145, -0.02235795, 0.06844760, -0.83390009, 0.00000000, 0.00000000, 0.00000000, -0.80676574, 0.56548631, 0.14955959, 0.08358352
424170061.718282, 0.31233215, 0.17970276, 0.84574890, 2.44635474, 3.44749079, -0.77352606, -177.60615540, 137.56776428, 193.37585449, 0.31312063, 0.02043877, 0.94949341, -0.00796010, 0.16802253, -0.57710266, 0.00000000, 0.00000000, 0.00000000, -0.81108067, 0.56293415, 0.12437098, 0.09891995
424170061.733661, 0.06423950, 0.30842590, 1.16265869, 1.63590316, 5.52328318, -0.66818206, -176.40843201, 138.08106995, 190.87960815, 0.26914823, 0.06586311, 0.96084404, -0.05517423, 0.15041497, 0.03135871, 0.00000000, 0.00000000, 0.00000000, -0.81512443, 0.56213360, 0.09300354, 0.10453860
424170061.750238, 0.07453918, 0.25390625, 1.15840149, 0.94450073, 6.78042784, -0.71260225, -174.69738770, 138.08106995, 191.54527283, 0.19455740, 0.09781612, 0.97600174, -0.13031790, 0.21060978, 0.18665694, 0.00000000, 0.00000000, 0.00000000, -0.81928561, 0.56282499, 0.05280598, 0.09597214
424170061.765343, 0.06196594, 0.40518188, 1.07704163, 0.80078058, 7.27365327, -0.73612782, -172.81524658, 136.54113770, 190.38035583, 0.09352566, 0.11639410, 0.98878986, -0.01898647, 0.13751215, 0.16961163, 0.00000000, 0.00000000, 0.00000000, -0.82301508, 0.56306404, 0.00575008, 0.07464591
424170061.780678, 0.06196594, 0.40518188, 1.07704163, 1.05978871, 6.02345786, -0.51453870, -169.39315796, 137.90997314, 191.71170044, -0.02058659, 0.12942566, 0.99137539, 0.08255253, 0.27575621, 0.08566622, 0.00000000, 0.00000000, 0.00000000, -0.82468101, 0.56177302, -0.04503682, 0.04779104
424170061.797572, 0.06506348, 0.41615295, 1.06912231, 1.63542991, 4.31282107, -0.09830953, -166.14218140, 136.71224976, 189.21545410, -0.12330895, 0.14366096, 0.98191470, 0.21728784, 0.25711113, 0.04196533, 0.00000000, 0.00000000, 0.00000000, -0.82353772, 0.55923427, -0.09177474, 0.02490099
424170061.813850, -0.20506287, 0.44242859, 1.24174500, 1.99001463, 2.34278334, 0.07617733, -163.57562256, 134.14567566, 189.71469116, -0.19967687, 0.16470936, 0.96591926, 0.15388525, 0.26387951, 0.10695674, 0.00000000, 0.00000000, 0.00000000, -0.81996693, 0.55732743, -0.12997761, 0.01209145
424170061.830309, -0.44747925, 0.39843750, 1.59941101, 1.74680811, 0.62951669, 0.09391717, -163.23341370, 134.14567566, 190.71319580, -0.24478661, 0.19338617, 0.95009542, 0.03972374, 0.24904242, 0.29164958, 0.00000000, 0.00000000, 0.00000000, -0.81618360, 0.55578057, -0.15756721, 0.01117431
424170061.844929, -0.68360901, 0.39910889, 1.94218445, 1.00262662, 0.04989779, -0.10625560, -163.23341370, 134.14567566, 190.71319580, -0.26125365, 0.22191109, 0.93941575, -0.18622558, 0.17652641, 0.65999526, 0.00000000, 0.00000000, 0.00000000, -0.81398199, 0.55420321, -0.17306223, 0.01848186
424170061.860456, -0.52645874, 0.34019470, 3.49653625, -1.23215382, -0.98503165, -0.50649675, -163.23341370, 132.43463135, 190.04753113, -0.26343235, 0.24071701, 0.93416202, -0.42017666, 0.15839188, 1.00802243, 0.00000000, 0.00000000, 0.00000000, -0.81353328, 0.55248947, -0.17956335, 0.02599973
424170061.875993, -0.52645874, 0.34019470, 3.49653625, -1.28664050, 0.58752263, -0.51339807, -164.43113708, 133.63237000, 188.88261414, -0.26113316, 0.23720828, 0.93570387, -0.43167689, 0.09535702, 1.06266344, 0.00000000, 0.00000000, 0.00000000, -0.81533126, 0.55053326, -0.17745538, 0.02564485
424170061.891825, -0.51832581, 0.25737000, 0.35058594, -2.79560515, -0.78612414, -1.06302472, -164.08892822, 134.65899658, 190.21394348, -0.25803682, 0.20175752, 0.94483382, -0.26842192, 0.13843718, 2.55170250, 0.00000000, 0.00000000, 0.00000000, -0.81858000, 0.54985788, -0.16565001, 0.01196559
424170061.907513, -0.51832581, 0.25737000, 0.35058594, -0.95036262, -0.67227321, -1.21994057, -165.45776367, 137.39665222, 190.87960815, -0.25965881, 0.15982898, 0.95238227, -0.25866699, 0.09754103, -0.60179633, 0.00000000, 0.00000000, 0.00000000, -0.82257860, 0.54731671, -0.15420487, -0.00545166
424170061.923524, -0.25616455, 0.09729004, 0.61767578, 0.12846184, -2.72447398, -1.23596241, -168.87985229, 138.42327881, 189.54827881, -0.24879074, 0.13818252, 0.95864946, -0.37793350, 0.29373276, 0.18960495, 0.00000000, 0.00000000, 0.00000000, -0.82846830, 0.54126241, -0.14341936, -0.01030365
424170061.939236, -0.22601318, 0.16056824, 1.18188477, 0.21912383, -2.55872603, -1.15543321, -168.19543457, 137.05444336, 190.54678345, -0.21933562, 0.12536354, 0.96756184, -0.02124971, 0.08038597, -0.33960161, 0.00000000, 0.00000000, 0.00000000, -0.83592418, 0.53386485, -0.12720065, -0.00625198
424170061.955138, -0.15275574, 0.23497009, 1.33389282, 0.03804645, -2.88857131, -1.04644201, -168.87985229, 136.37004089, 189.21545410, -0.18500188, 0.12547956, 0.97469443, -0.04101131, 0.03508867, 0.20719036, 0.00000000, 0.00000000, 0.00000000, -0.84302012, 0.52598886, -0.11240279, 0.00429073
424170061.970780, -0.00737000, 0.17642212, 1.09532166, -0.46526490, -2.55126997, -0.92967465, -167.85322571, 134.65899658, 189.88111877, -0.13954347, 0.12697169, 0.98204166, -0.01321227, 0.10799840, 0.35185117, 0.00000000, 0.00000000, 0.00000000, -0.84991383, 0.51833128, -0.09304210, 0.01795384
424170061.986460, -0.00737000, 0.17642212, 1.09532166, -1.21561133, -1.61099967, -0.73442127, -167.85322571, 134.65899658, 189.88111877, -0.10052396, 0.11884509, 0.98781109, 0.09315397, 0.05757703, 0.10751055, 0.00000000, 0.00000000, 0.00000000, -0.85558075, 0.51174910, -0.07386277, 0.02527329
424170062.002553, 0.11535645, 0.15806580, 0.77705383, -1.22869997, -0.82577408, -0.42000234, -168.53764343, 136.02783203, 190.54678345, -0.07248241, 0.10207590, 0.99213248, 0.12176830, 0.05896536, 0.09598705, 0.00000000, 0.00000000, 0.00000000, -0.85994328, 0.50652125, -0.05724236, 0.02563364
424170062.018666, 0.12982178, 0.05763245, 0.60261536, -1.05350605, -0.21395410, -0.23454087, -169.73536682, 135.85671997, 191.37886047, -0.05495865, 0.08258083, 0.99506783, 0.20835525, 0.00907871, -0.14960884, 0.00000000, 0.00000000, 0.00000000, -0.86268316, 0.50330078, -0.04459743, 0.02184405
424170062.034003, 0.06385803, 0.00614929, 0.55538940, -0.69886087, 0.55376706, -0.16331862, -170.41978455, 136.88334656, 190.04753113, -0.04934265, 0.06342601, 0.99676597, 0.17916442, -0.00579357, -0.39415064, 0.00000000, 0.00000000, 0.00000000, -0.86401073, 0.50186498, -0.03729224, 0.01504303
424170062.049589, -0.02183533, 0.06091309, 0.47117615, -0.15341246, 0.88353032, -0.15095676, -171.27529907, 138.42327881, 190.87960815, -0.05476928, 0.05058436, 0.99721688, 0.11862731, -0.04443507, -0.44182751, 0.00000000, 0.00000000, 0.00000000, -0.86462561, 0.50102995, -0.03640025, 0.00815910
424170062.065710, -0.02183533, 0.06091309, 0.47117615, 0.54372721, 1.43093776, -0.10660874, -169.39315796, 138.59439087, 190.38035583, -0.06625301, 0.04485919, 0.99679399, 0.04441769, 0.01605390, -0.52561784, 0.00000000, 0.00000000, 0.00000000, -0.86497144, 0.50022134, -0.03993726, 0.00283492
424170062.081435, -0.04289246, 0.07142639, 0.40270996, 1.18747450, 1.95420364, -0.04925410, -169.56427002, 139.10769653, 190.87960815, -0.08658209, 0.04908192, 0.99503493, 0.06039801, 0.00856579, -0.60900283, 0.00000000, 0.00000000, 0.00000000, -0.86493974, 0.49939635, -0.04982350, -0.00039392
424170062.097286, -0.13143921, 0.18676758, 0.49131775, 0.63080859, 0.80798390, 0.03054779, -169.39315796, 137.56776428, 190.04753113, -0.11405224, 0.06435873, 0.99138796, 0.02649731, 0.07355020, -0.51246035, 0.00000000, 0.00000000, 0.00000000, -0.86434021, 0.49860804, -0.06561741, -0.00062244
424170062.113385, -0.20620728, 0.20692444, 2.01695251, -0.78191715, 0.52150793, 0.21353678, -166.31327820, 136.88334656, 189.38186646, -0.14056145, 0.08315447, 0.98657376, 0.00912223, 0.10361311, -0.49525604, 0.00000000, 0.00000000, 0.00000000, -0.86318780, 0.49819044, -0.08192884, 0.00088170
424170062.130044, 0.07479858, -0.09825134, 0.54373169, -1.22961157, 1.74074116, 0.29556241, -166.31327820, 135.51451111, 188.05053711, -0.13360949, 0.05303837, 0.98961377, -0.07259779, 0.15388606, 1.02733874, 0.00000000, 0.00000000, 0.00000000, -0.86298302, 0.50006720, -0.07128291, -0.01057618
424170062.147088, -0.64082336, 0.22309875, 1.33192444, -0.08523181, -1.56063823, 0.30359530, -166.65548706, 138.59439087, 189.04902649, -0.16084480, 0.04321412, 0.98603320, 0.23564339, -0.14146547, -0.44230151, 0.00000000, 0.00000000, 0.00000000, -0.86061568, 0.50235172, -0.08063020, -0.02195830
424170062.160451, -0.64082336, 0.22309875, 1.33192444, -0.49031885, -0.83991387, 0.02741405, -166.65548706, 138.59439087, 189.04902649, -0.15110177, 0.03068831, 0.98804176, 0.08565683, 0.24097916, -1.73201454, 0.00000000, 0.00000000, 0.00000000, -0.85945866, 0.50532334, -0.07312384, -0.02514028
424170062.176307, -0.10899353, 0.05325317, 1.19757080, -0.02592294, -0.28084978, 0.05207013, -167.33990479, 139.27880859, 190.04753113, -0.13099834, 0.02196554, 0.99113923, 0.05775616, 0.00617167, 0.30564424, 0.00000000, 0.00000000, 0.00000000, -0.85981085, 0.50625578, -0.06215235, -0.02382177
424170062.191896, -0.11505127, -0.02947998, 0.72647095, -0.51858511, -0.37550065, 0.16755598, -168.36653137, 139.62101746, 189.71469116, -0.12229724, 0.02175777, 0.99225497, 0.01330371, 0.03149540, 0.20531580, 0.00000000, 0.00000000, 0.00000000, -0.85984112, 0.50675511, -0.05831686, -0.02171736
424170062.207724, 0.04103088, -0.06300354, 1.06214905, -0.29226755, -0.69843557, 0.24366992, -171.27529907, 138.76548767, 190.54678345, -0.12018877, 0.01467028, 0.99264264, 0.00513751, -0.04415026, -0.26617169, 0.00000000, 0.00000000, 0.00000000, -0.85916654, 0.50808876, -0.05556239, -0.02432064
424170062.224493, -0.03683472, -0.04391479, 0.66696167, -0.09100847, -0.34651188, 0.51817472, -170.76199341, 140.30543518, 189.04902649, -0.10940135, 0.00809011, 0.99396473, 0.15043223, -0.07109365, 0.06818431, 0.00000000, 0.00000000, 0.00000000, -0.85849612, 0.50986938, -0.04917114, -0.02449144
424170062.238896, -0.03683472, -0.04391479, 0.66696167, -0.07367289, -1.22643895, 0.56418588, -169.90646362, 138.76548767, 188.88261414, -0.10356550, 0.00681507, 0.99459928, 0.16794233, -0.07763112, 0.18569857, 0.00000000, 0.00000000, 0.00000000, -0.85680788, 0.51301062, -0.04624084, -0.02370952
424170062.255413, -0.19076538, 0.14723206, 1.00302124, -0.05047409, -0.98814835, 0.42175763, -168.87985229, 138.76548767, 188.21694946, -0.08832850, 0.00756988, 0.99606264, -0.04539953, -0.03186188, -0.17207277, 0.00000000, 0.00000000, 0.00000000, -0.85471708, 0.51719439, -0.03978381, -0.01964512
424170062.270952, -0.08824158, 0.08546448, 1.16297913, -0.02303528, -0.28692977, 0.20563092, -169.90646362, 138.08106995, 188.54977417, -0.06970552, 0.00713800, 0.99754208, -0.03908964, 0.12942816, 0.22818120, 0.00000000, 0.00000000, 0.00000000, -0.85296327, 0.52079237, -0.03162570, -0.01512541
424170062.287136, -0.06297302, 0.07392883, 1.15925598, -0.07160841, 0.14482084, -0.05070419, -169.90646362, 138.08106995, 188.54977417, -0.06198300, 0.00659051, 0.99805546, -0.02625857, 0.07887397, 0.16492368, 0.00000000, 0.00000000, 0.00000000, -0.85183481, 0.52288161, -0.02815004, -0.01341091
424170062.302954, -0.09468079, 0.05575562, 1.03344727, -0.23817875, 0.43547264, -0.19889446, -168.87985229, 138.08106995, 188.88261414, -0.06197620, 0.00548628, 0.99806255, -0.00099682, 0.06844255, 0.16119343, 0.00000000, 0.00000000, 0.00000000, -0.85167623, 0.52314327, -0.02785387, -0.01388840
424170062.319391, -0.09468079, 0.05575562, 1.03344727, -0.31771459, 0.38791178, -0.22146821, -168.53764343, 140.13432312, 189.21545410, -0.06775492, 0.00229757, 0.99769932, 0.00435465, 0.05850871, 0.14323083, 0.00000000, 0.00000000, 0.00000000, -0.85206212, 0.52234071, -0.02949969, -0.01673599
424170062.334262, -0.06451416, 0.00268555, 0.98536682, -0.02414928, 0.43212399, -0.17343890, -170.24867249, 142.18757629, 190.21394348, -0.07408250, -0.00272073, 0.99724841, 0.02089036, 0.01298990, -0.00887560, 0.00000000, 0.00000000, 0.00000000, -0.85279242, 0.52093118, -0.03092238, -0.02048424
424170062.349596, -0.08900452, 0.00471497, 0.91062927, 0.01980034, 0.18132026, -0.10849878, -170.59088135, 140.81874084, 189.88111877, -0.08034748, -0.00629424, 0.99674702, 0.04488605, -0.02265168, -0.15337852, 0.00000000, 0.00000000, 0.00000000, -0.85335210, 0.51977275, -0.03269974, -0.02360521
424170062.365952, -0.16682434, 0.08613586, 0.91773987, 0.03822329, -0.16276442, -0.24091435, -170.24867249, 140.13432312, 190.21394348, -0.08495968, -0.00670097, 0.99636185, -0.00404484, 0.01141594, -0.08573259, 0.00000000, 0.00000000, 0.00000000, -0.85369689, 0.51902076, -0.03458885, -0.02495361
424170062.381524, -0.14161682, 0.09455872, 1.07273865, 0.03842356, -0.00006578, -0.54895234, -169.90646362, 140.13432312, 189.88111877, -0.08955599, -0.00062870, 0.99598157, -0.07726835, 0.08676457, -0.07824172, 0.00000000, 0.00000000, 0.00000000, -0.85419380, 0.51801906, -0.03816293, -0.02351161
424170062.397671, -0.14161682, 0.09455872, 1.07273865, 0.03983157, 0.11902785, -0.73317011, -169.56427002, 138.76548767, 188.54977417, -0.08828381, -0.00072650, 0.99609512, -0.06145069, 0.11358050, 0.07258471, 0.00000000, 0.00000000, 0.00000000, -0.85594094, 0.51518215, -0.03766927, -0.02309714
424170062.413251, -0.06170654, -0.01077271, 0.90509033, 0.06256751, -0.13400308, -0.66965266, -168.70874023, 137.90997314, 188.05053711, -0.09001949, -0.00115063, 0.99593931, -0.00620244, 0.04610302, -0.00352296, 0.00000000, 0.00000000, 0.00000000, -0.85862117, 0.51062643, -0.03843057, -0.02352491
424170062.428967, 0.00033569, -0.07032776, 0.96441650, 0.08365761, -0.23065372, -0.42197574, -167.85322571, 137.73886108, 187.55128479, -0.08910973, -0.00166488, 0.99602044, 0.03967125, -0.03532242, -0.08420096, 0.00000000, 0.00000000, 0.00000000, -0.86140516, 0.50595589, -0.03803429, -0.02330624
424170062.446045, 0.00292969, -0.08522034, 0.88212585, 0.26658056, -0.41879273, -0.10197643, -169.05094910, 137.90997314, 190.04753113, -0.08568092, -0.00143042, 0.99632162, 0.08601661, -0.06889734, -0.03190510, 0.00000000, 0.00000000, 0.00000000, -0.86348235, 0.50255251, -0.03670005, -0.02218796
424170062.460469, -0.05882263, 0.00259399, 0.77934265, 0.15588174, -1.11285619, 0.06451747, -169.05094910, 137.90997314, 190.04753113, -0.08022840, 0.00126918, 0.99677569, 0.08315809, -0.08648951, -0.11464985, 0.00000000, 0.00000000, 0.00000000, -0.86435851, 0.50127060, -0.03504766, -0.01959114
424170062.476463, -0.05882263, 0.00259399, 0.77934265, 0.06451854, -1.41608052, 0.21678930, -170.41978455, 138.93659973, 190.38035583, -0.06667529, 0.00434887, 0.99776524, 0.02572070, -0.01524365, -0.17818516, 0.00000000, 0.00000000, 0.00000000, -0.86445111, 0.50160433, -0.02994293, -0.01485922
424170062.492207, 0.01048279, -0.01969910, 1.43899536, 0.03701900, -0.04021853, 0.32792861, -172.30192566, 141.16094971, 190.54678345, -0.04401337, 0.00585162, 0.99901378, 0.04093109, -0.02996051, -0.01022901, 0.00000000, 0.00000000, 0.00000000, -0.86405974, 0.50289926, -0.02049658, -0.00854328
424170062.507917, 0.03230286, 0.03230286, 1.00701904, -0.10436263, 0.08879299, 0.30183815, -171.27529907, 140.47653198, 190.54678345, -0.03509085, 0.00646314, 0.99936324, 0.04235403, 0.00627795, 0.40993854, 0.00000000, 0.00000000, 0.00000000, -0.86281605, 0.50520301, -0.01677641, -0.00607769
424170062.524333, -0.14950562, 0.09143066, 1.10221863, -0.31981049, -0.16774852, 0.15098525, -171.78862000, 139.96322632, 189.38186646, -0.03793069, 0.00669750, 0.99925792, 0.07023355, 0.02560536, 0.00776112, 0.00000000, 0.00000000, 0.00000000, -0.86145773, 0.50746384, -0.01804391, -0.00674193
424170062.539349, -0.10432434, 0.11012268, 0.94328308, -0.10496690, 0.24723216, -0.13081421, -170.93309021, 138.42327881, 188.88261414, -0.03483329, 0.00220186, 0.99939072, -0.11467233, 0.08922881, 0.10282791, 0.00000000, 0.00000000, 0.00000000, -0.86050730, 0.50913903, -0.01555241, -0.00792255
424170062.555619, -0.10432434, 0.11012268, 0.94328308, -0.02137826, 0.03471617, -0.45006597, -169.22206116, 138.76548767, 188.88261414, -0.03778132, 0.00275693, 0.99928224, -0.06654302, 0.10736576, -0.05599915, 0.00000000, 0.00000000, 0.00000000, -0.86055239, 0.50900953, -0.01696414, -0.00843231
424170062.571204, -0.10943604, 0.08813477, 0.83726501, 0.06906802, -0.24503932, -0.68773286, -168.87985229, 136.37004089, 188.21694946, -0.04006255, 0.00184058, 0.99919546, -0.06587923, 0.11752892, -0.09776726, 0.00000000, 0.00000000, 0.00000000, -0.86184325, 0.50677801, -0.01773734, -0.00936203
424170062.587353, -0.00259399, -0.00204468, 1.10260010, 0.07771743, -0.00110388, -0.68356980, -170.41978455, 139.27880859, 189.38186646, -0.03719378, 0.00222494, 0.99930561, -0.04235028, 0.06708048, -0.01029192, 0.00000000, 0.00000000, 0.00000000, -0.86424084, 0.50273310, -0.01663724, -0.00839074
424170062.603547, 0.04988098, -0.05870056, 1.03790283, -0.19905798, -0.03787574, -0.45429587, -171.61750793, 139.44990540, 190.54678345, -0.03526274, 0.00285157, 0.99937403, 0.03266875, -0.00489624, 0.10322609, 0.00000000, 0.00000000, 0.00000000, -0.86697423, 0.49803885, -0.01600105, -0.00754735
424170062.618617, 0.04254150, -0.03067017, 0.97972107, -0.11113291, -0.03568849, -0.01805011, -171.61750793, 139.44990540, 190.54678345, -0.03469973, 0.00031792, 0.99939775, 0.08458071, -0.05901848, 0.03850510, 0.00000000, 0.00000000, 0.00000000, -0.86905250, 0.49441543, -0.01516110, -0.00844244
424170062.634442, 0.04254150, -0.03067017, 0.97972107, 0.05811550, 0.02768835, -0.00125941, -172.30192566, 140.47653198, 189.54827881, -0.02950071, -0.00344259, 0.99955881, 0.07204222, -0.02722758, -0.01983776, 0.00000000, 0.00000000, 0.00000000, -0.86969440, 0.49336707, -0.01198172, -0.00877628
424170062.649823, -0.01747131, 0.01019287, 0.99540710, 0.09203432, 0.01465671, -0.00228686, -172.64413452, 141.84536743, 190.54678345, -0.02955160, -0.00354237, 0.99955696, 0.01227865, 0.00998158, -0.05137582, 0.00000000, 0.00000000, 0.00000000, -0.86965422, 0.49343695, -0.01197852, -0.00883320
424170062.666033, -0.02014160, 0.02305603, 1.03523254, -0.04124384, -0.00687442, -0.01567563, -171.44641113, 141.33206177, 190.38035583, -0.02988437, -0.00222859, 0.99955088, 0.00615696, 0.01651082, -0.01654917, 0.00000000, 0.00000000, 0.00000000, -0.86959394, 0.49354010, -0.01244648, -0.00834543
424170062.681530, -0.01475525, 0.01701355, 0.98794556, -0.06828771, -0.00916261, -0.03229083, -171.10420227, 138.25218201, 191.04602051, -0.02925053, -0.00057677, 0.99957192, 0.00910893, 0.02363280, 0.03566060, 0.00000000, 0.00000000, 0.00000000, -0.86956201, 0.49360701, -0.01257792, -0.00747150
424170062.697801, -0.01913452, 0.00590515, 0.97114563, 0.02484729, 0.00562380, -0.01244975, -169.73536682, 137.56776428, 189.71469116, -0.02904626, -0.00178651, 0.99957645, 0.01429101, 0.01880006, -0.01163092, 0.00000000, 0.00000000, 0.00000000, -0.86960780, 0.49352862, -0.01219116, -0.00794605
424170062.713490, -0.01913452, 0.00590515, 0.97114563, 0.06139225, 0.01250887, 0.00084928, -169.90646362, 138.42327881, 188.21694946, -0.02898615, -0.00216572, 0.99957746, 0.00985163, 0.00807087, -0.02843184, 0.00000000, 0.00000000, 0.00000000, -0.86961528, 0.49351596, -0.01207154, -0.00809594
424170062.729296, -0.01628113, 0.01208496, 1.00289917, -0.00119523, -0.00596601, -0.02222594, -169.90646362, 137.73886108, 189.88111877, -0.02912542, -0.00141784, 0.99957478, 0.01418707, 0.00932189, 0.00179853, 0.00000000, 0.00000000, 0.00000000, -0.86954212, 0.49364347, -0.01231556, -0.00780688
424170062.746397, -0.01940918, 0.00923157, 0.99688721, -0.03892183, -0.01163482, -0.02853391, -170.93309021, 138.42327881, 189.54827881, -0.02906361, -0.00118442, 0.99957687, 0.01313343, 0.01270481, 0.02355546, 0.00000000, 0.00000000, 0.00000000, -0.86949902, 0.49372045, -0.01234561, -0.00769120
424170062.760960, -0.01417542, 0.01239014, 0.97691345, 0.01544767, 0.00805180, -0.00552393, -170.93309021, 138.42327881, 189.54827881, -0.02886370, -0.00195824, 0.99958146, 0.00945453, 0.01118981, -0.00269423, 0.00000000, 0.00000000, 0.00000000, -0.86952560, 0.49367596, -0.01206802, -0.00797770
424170062.776967, -0.01982117, 0.01562500, 0.99472046, 0.05667074, 0.01136025, -0.00038296, -170.41978455, 140.64764404, 189.04902649, -0.02881632, -0.00229184, 0.99958211, 0.01464090, 0.01468197, -0.02266864, 0.00000000, 0.00000000, 0.00000000, -0.86951333, 0.49369790, -0.01196485, -0.00811136
424170062.792454, -0.01982117, 0.01562500, 0.99472046, 0.01176238, -0.00486160, -0.02090848, -172.13082886, 139.96322632, 190.71319580, -0.02846532, -0.00069388, 0.99959457, 0.00864415, 0.01631888, -0.00487408, 0.00000000, 0.00000000, 0.00000000, -0.86945629, 0.49380465, -0.01220583, -0.00733129
424170062.808118, -0.01829529, 0.01506042, 1.00494385, -0.02715519, -0.01169820, -0.02841220, -171.95971680, 141.16094971, 190.54678345, -0.02848307, -0.00045350, 0.99959415, 0.01154582, 0.01938966, 0.00760798, 0.00000000, 0.00000000, 0.00000000, -0.86941685, 0.49387390, -0.01227233, -0.00723213
424170062.824588, -0.01548767, 0.00799561, 0.98339844, 0.01293231, -0.00605656, -0.02440787, -171.78862000, 138.93659973, 189.38186646, -0.02826289, -0.00086800, 0.99960017, 0.01301936, 0.01099984, -0.00095818, 0.00000000, 0.00000000, 0.00000000, -0.86944272, 0.49383137, -0.01207457, -0.00735736
424170062.839758, -0.01554871, 0.01089478, 0.99139404, 0.03905233, 0.01260101, -0.00403788, -169.73536682, 138.93659973, 188.71620178, -0.02739784, -0.00063868, 0.99962443, 0.01191017, 0.00863428, -0.01622597, 0.00000000, 0.00000000, 0.00000000, -0.86948143, 0.49377550, -0.01175548, -0.00704317
424170062.855849, -0.01950073, 0.01359558, 1.00593567, 0.00590849, -0.00608266, -0.03495665, -170.59088135, 139.10769653, 188.21694946, -0.02634559, 0.00060908, 0.99965268, 0.01079688, 0.01028570, -0.00825867, 0.00000000, 0.00000000, 0.00000000, -0.86942966, 0.49388098, -0.01160524, -0.00624210
424170062.871338, -0.01950073, 0.01359558, 1.00593567, -0.01413153, -0.00470740, -0.01884852, -169.56427002, 137.73886108, 188.21694946, -0.02567068, 0.00184977, 0.99966872, 0.00616995, 0.01174581, 0.00626693, 0.00000000, 0.00000000, 0.00000000, -0.86942816, 0.49389173, -0.01161812, -0.00553607
424170062.887235, -0.01708984, 0.01409912, 0.99267578, 0.01187157, 0.00214944, -0.01962643, -172.13082886, 139.96322632, 189.38186646, -0.02521535, 0.00208811, 0.99967986, 0.00640126, 0.01249930, -0.00022918, 0.00000000, 0.00000000, 0.00000000, -0.86942753, 0.49389847, -0.01147895, -0.00532003
424170062.903457, -0.01513672, 0.01333618, 0.99043274, 0.03306101, 0.00802091, 0.00513404, -171.10420227, 138.25218201, 190.38035583, -0.02451669, 0.00281649, 0.99969548, 0.00745737, 0.00910062, -0.01327578, 0.00000000, 0.00000000, 0.00000000, -0.86943542, 0.49389248, -0.01135509, -0.00483066
424170062.919550, -0.01791382, 0.00967407, 1.00265503, 0.01174640, -0.00483310, -0.01625247, -171.10420227, 138.25218201, 190.38035583, -0.02385040, 0.00381955, 0.99970824, 0.00854584, 0.00754824, -0.00529296, 0.00000000, 0.00000000, 0.00000000, -0.86937189, 0.49401076, -0.01131253, -0.00423149
424170062.934591, -0.01586914, 0.00622559, 0.99836731, -0.00349194, -0.00245171, -0.02219132, -172.81524658, 141.67427063, 190.71319580, -0.02355139, 0.00414133, 0.99971408, 0.00563757, 0.00553274, 0.00294098, 0.00000000, 0.00000000, 0.00000000, -0.86934235, 0.49406569, -0.01126176, -0.00401842
424170062.950129, -0.01707458, 0.01216125, 0.98617554, 0.01532090, -0.00132865, -0.01266493, -171.27529907, 141.16094971, 190.87960815, -0.02299489, 0.00427099, 0.99972647, 0.00712575, 0.00195459, -0.00135915, 0.00000000, 0.00000000, 0.00000000, -0.86935198, 0.49405502, -0.01105189, -0.00382440
424170062.966148, -0.01707458, 0.01216125, 0.98617554, 0.02471413, -0.00134383, -0.00674818, -171.10420227, 141.33206177, 189.38186646, -0.02287239, 0.00438718, 0.99972874, 0.00192207, 0.00662966, -0.01105079, 0.00000000, 0.00000000, 0.00000000, -0.86932612, 0.49410168, -0.01102714, -0.00374421
424170062.981858, -0.01853943, 0.01387024, 0.99794006, 0.01763199, -0.00727096, -0.02787078, -169.05094910, 139.62101746, 190.04753113, -0.02245991, 0.00510015, 0.99973476, 0.00491230, 0.00753413, -0.00705895, 0.00000000, 0.00000000, 0.00000000, -0.86928957, 0.49416900, -0.01102371, -0.00333319
424170062.997792, -0.01889038, 0.01705933, 0.99772644, -0.00818736, -0.00124423, -0.01989222, -169.73536682, 138.59439087, 189.38186646, -0.02212201, 0.00582449, 0.99973834, 0.00449811, 0.01022776, -0.00103531, 0.00000000, 0.00000000, 0.00000000, -0.86928263, 0.49418302, -0.01105577, -0.00293498
424170063.013908, -0.01872253, 0.01069641, 0.99291992, 0.01292299, -0.00483950, -0.01624049, -170.07757568, 138.25218201, 189.71469116, -0.02194019, 0.00592441, 0.99974173, 0.00304981, 0.01113491, -0.00201529, 0.00000000, 0.00000000, 0.00000000, -0.86929017, 0.49417149, -0.01100146, -0.00284646
424170063.029860, -0.01849365, 0.01142883, 0.99542236, 0.02238573, -0.00257714, -0.01959554, -170.76199341, 138.93659973, 189.71469116, -0.02168494, 0.00617643, 0.99974579, 0.00296241, 0.00451998, -0.00682585, 0.00000000, 0.00000000, 0.00000000, -0.86928110, 0.49418949, -0.01095271, -0.00267405
424170063.046007, -0.01849365, 0.01142883, 0.99542236, 0.01994228, -0.00840760, -0.02088238, -170.93309021, 139.10769653, 191.21244812, -0.02140513, 0.00644482, 0.99975014, 0.00591746, 0.00246631, -0.00686071, 0.00000000, 0.00000000, 0.00000000, -0.86929117, 0.49417397, -0.01089744, -0.00248803
424170063.061706, -0.01696777, 0.00991821, 0.99589539, 0.00825127, -0.00367516, -0.02092552, -171.95971680, 140.13432312, 191.21244812, -0.02105014, 0.00685094, 0.99975497, 0.00476901, 0.00523402, 0.00241180, 0.00000000, 0.00000000, 0.00000000, -0.86928423, 0.49418862, -0.01084343, -0.00222394
424170063.076351, -0.01757812, 0.01361084, 0.99269104, 0.01176372, -0.00606428, -0.02674772, -171.95971680, 140.13432312, 191.21244812, -0.02074095, 0.00702100, 0.99976021, 0.00268980, 0.00611681, -0.00633677, 0.00000000, 0.00000000, 0.00000000, -0.86927901, 0.49420049, -0.01075102, -0.00207374
424170063.092623, -0.01815796, 0.01728821, 0.99322510, 0.01770762, -0.00260191, -0.02779195, -172.81524658, 140.64764404, 190.38035583, -0.02055722, 0.00710220, 0.99976343, 0.00297910, 0.00650864, -0.00707241, 0.00000000, 0.00000000, 0.00000000, -0.86928713, 0.49418782, -0.01069124, -0.00199287
424170063.108213, -0.01531982, 0.01210022, 0.99316406, 0.01065051, -0.00136753, -0.02318948, -171.78862000, 139.62101746, 190.38035583, -0.02040482, 0.00773835, 0.99976188, 0.00224686, 0.00954986, -0.00653675, 0.00000000, 0.00000000, 0.00000000, -0.86928762, 0.49418615, -0.01078221, -0.00167867
424170063.124184, -0.01531982, 0.01210022, 0.99316406, 0.00365812, 0.00335372, -0.02085601, -171.44641113, 138.93659973, 189.38186646, -0.02024372, 0.00796034, 0.99976337, 0.00193318, 0.00662706, -0.00283040, 0.00000000, 0.00000000, 0.00000000, -0.86929653, 0.49417126, -0.01076706, -0.00154217
424170063.140018, -0.01777649, 0.01142883, 0.99142456, 0.01885598, -0.00255797, -0.01963202, -169.56427002, 137.39665222, 189.88111877, -0.02006763, 0.00799178, 0.99976671, 0.00262683, 0.00171281, -0.00361190, 0.00000000, 0.00000000, 0.00000000, -0.86929002, 0.49418438, -0.01069825, -0.00148514
424170063.156054, -0.02159119, 0.00955200, 0.99566650, 0.01773479, 0.00215317, -0.01374591, -168.19543457, 136.37004089, 190.54678345, -0.01980731, 0.00813017, 0.99977076, 0.00335833, 0.00006380, -0.00613367, 0.00000000, 0.00000000, 0.00000000, -0.86929819, 0.49417207, -0.01061930, -0.00136049
424170063.171525, -0.01750183, 0.01139832, 0.99992371, 0.01412860, -0.00129376, -0.00802144, -170.07757568, 137.22555542, 189.04902649, -0.01981344, 0.00825362, 0.99976963, -0.00177775, 0.00129838, -0.00410312, 0.00000000, 0.00000000, 0.00000000, -0.86928992, 0.49418605, -0.01065245, -0.00130852
424170063.187483, -0.01640320, 0.01554871, 0.99418640, 0.00825660, -0.00488557, -0.02792884, -171.44641113, 139.62101746, 190.71319580, -0.01970705, 0.00849130, 0.99976975, 0.00220522, 0.00290702, 0.00015397, 0.00000000, 0.00000000, 0.00000000, -0.86925591, 0.49424592, -0.01066486, -0.00117964
424170063.203161, -0.01640320, 0.01554871, 0.99418640, 0.00945502, -0.00252867, -0.02322143, -171.95971680, 140.13432312, 190.21394348, -0.01951266, 0.00867578, 0.99977195, 0.00310946, 0.00687293, -0.00558557, 0.00000000, 0.00000000, 0.00000000, -0.86926443, 0.49423207, -0.01062597, -0.00105124
424170063.219958, -0.01586914, 0.01356506, 0.99467468, 0.01304816, 0.00214305, -0.01961445, -172.98634338, 140.13432312, 191.21244812, -0.01933489, 0.00872697, 0.99977499, 0.00222979, 0.00584518, -0.00683980, 0.00000000, 0.00000000, 0.00000000, -0.86929207, 0.49418497, -0.01056139, -0.00098448
424170063.234834, -0.01892090, 0.00973511, 0.99441528, 0.01293231, -0.00605656, -0.02440787, -172.98634338, 140.13432312, 191.21244812, -0.01913128, 0.00896553, 0.99977678, 0.00259075, 0.00241752, -0.00584978, 0.00000000, 0.00000000, 0.00000000, -0.86929171, 0.49418652, -0.01053183, -0.00083047
424170063.250175, -0.01669312, 0.00820923, 0.99537659, 0.00243733, -0.00016299, -0.02441879, -172.30192566, 139.79211426, 190.21394348, -0.01905471, 0.00901096, 0.99977785, 0.00013382, 0.00072415, -0.00536255, 0.00000000, 0.00000000, 0.00000000, -0.86928410, 0.49420043, -0.01050976, -0.00079197
424170063.266355, -0.01336670, 0.01231384, 0.99290466, 0.01062362, -0.00252068, -0.02088131, -169.56427002, 138.42327881, 189.21545410, -0.01886515, 0.00893463, 0.99978215, 0.00217204, -0.00072540, -0.00440553, 0.00000000, 0.00000000, 0.00000000, -0.86930446, 0.49416678, -0.01040851, -0.00077789
424170063.281966, -0.01336670, 0.01231384, 0.99290466, 0.02475808, -0.00142239, -0.01955160, -169.39315796, 138.93659973, 192.04452515, -0.01860062, 0.00900153, 0.99978650, 0.00523393, 0.00331232, -0.00688181, 0.00000000, 0.00000000, 0.00000000, -0.86933702, 0.49411171, -0.01031009, -0.00068279
424170063.298815, -0.01399231, 0.01622009, 0.99293518, 0.00360033, 0.00105488, -0.01507536, -168.36653137, 137.56776428, 190.04753113, -0.01856324, 0.00919990, 0.99978536, -0.00141052, 0.00325127, -0.00634664, 0.00000000, 0.00000000, 0.00000000, -0.86933031, 0.49412295, -0.01034284, -0.00058745
424170063.313795, -0.01602173, 0.01136780, 0.99790955, 0.00941321, -0.00485601, -0.02209678, -170.07757568, 137.56776428, 190.04753113, -0.01849304, 0.00939386, 0.99978489, -0.00035157, 0.00571234, -0.00459138, 0.00000000, 0.00000000, 0.00000000, -0.86930766, 0.49416255, -0.01036023, -0.00048626
424170063.329923, -0.01681519, 0.01286316, 0.99465942, 0.01181352, -0.00375133, -0.03020025, -172.13082886, 138.25218201, 191.04602051, -0.01835825, 0.00936835, 0.99978757, 0.00233652, 0.00199945, -0.00187804, 0.00000000, 0.00000000, 0.00000000, -0.86931252, 0.49415537, -0.01029533, -0.00046395
424170063.346295, -0.01795959, 0.01042175, 0.99942017, 0.01415097, -0.00373535, -0.02552027, -170.93309021, 139.44990540, 190.54678345, -0.01820688, 0.00955086, 0.99978864, 0.00139169, 0.00331230, -0.00512920, 0.00000000, 0.00000000, 0.00000000, -0.86933183, 0.49412193, -0.01027464, -0.00034681
424170063.361425, -0.01795959, 0.01042175, 0.99942017, 0.01292698, -0.00484669, -0.01740456, -172.30192566, 138.42327881, 190.87960815, -0.01810434, 0.00951517, 0.99979085, 0.00014475, 0.00090658, -0.00037066, 0.00000000, 0.00000000, 0.00000000, -0.86934852, 0.49409368, -0.01022125, -0.00033665
424170063.377152, -0.01828003, 0.01338196, 0.99719238, 0.00944037, -0.00370286, -0.02440494, -172.30192566, 138.42327881, 190.87960815, -0.01804968, 0.00954632, 0.99979150, -0.00187830, 0.00142475, -0.00410975, 0.00000000, 0.00000000, 0.00000000, -0.86935006, 0.49409132, -0.01020519, -0.00030958
424170063.393009, -0.01727295, 0.01139832, 0.99293518, 0.00946993, -0.00135395, -0.02203766, -172.30192566, 139.79211426, 192.21093750, -0.01796755, 0.00967967, 0.99979174, -0.00081601, 0.00321401, -0.00485763, 0.00000000, 0.00000000, 0.00000000, -0.86936493, 0.49406526, -0.01020244, -0.00023101
424170063.408553, -0.01759338, 0.01458740, 0.99343872, 0.01425590, 0.00328208, -0.02307443, -171.10420227, 139.27880859, 190.71319580, -0.01785311, 0.00964049, 0.99979413, 0.00058016, 0.00175782, -0.00685896, 0.00000000, 0.00000000, 0.00000000, -0.86939110, 0.49402043, -0.01014301, -0.00021924
424170063.424747, -0.01657104, 0.01284790, 0.99441528, 0.00607361, 0.00923451, -0.01142150, -169.73536682, 137.90997314, 191.37886047, -0.01784344, 0.00989581, 0.99979180, 0.00025006, 0.00469159, -0.00635310, 0.00000000, 0.00000000, 0.00000000, -0.86939882, 0.49400566, -0.01020189, -0.00010569
424170063.440436, -0.01657104, 0.01284790, 0.99441528, 0.01182710, -0.00137392, -0.02317722, -169.90646362, 138.42327881, 189.54827881, -0.01790727, 0.00995984, 0.99979007, 0.00133622, 0.00288806, -0.00537476, 0.00000000, 0.00000000, 0.00000000, -0.86933650, 0.49411443, -0.01024545, -0.00009490
424170063.456293, -0.01731873, 0.01312256, 0.99368286, 0.00603020, 0.00450847, -0.02081207, -169.22206116, 137.73886108, 190.54678345, -0.01783129, 0.00998269, 0.99979115, 0.00106188, 0.00140037, -0.00188163, 0.00000000, 0.00000000, 0.00000000, -0.86934243, 0.49410458, -0.01021806, -0.00006608
424170063.471774, -0.01736450, 0.01483154, 0.99519348, 0.01418346, -0.00019068, -0.01847754, -169.90646362, 138.42327881, 192.21093750, -0.01781150, 0.00998679, 0.99979150, -0.00117043, 0.00145730, -0.00636802, 0.00000000, 0.00000000, 0.00000000, -0.86934347, 0.49410289, -0.01021047, -0.00005939
424170063.487842, -0.01802063, 0.01240540, 0.99493408, 0.00951148, 0.00097312, -0.02316258, -169.39315796, 140.30543518, 192.04452515, -0.01774334, 0.01013188, 0.99979126, 0.00169109, 0.00198359, -0.00563535, 0.00000000, 0.00000000, 0.00000000, -0.86933660, 0.49411487, -0.01021669, 0.00002039
424170063.503549, -0.01538086, 0.01454163, 0.99267578, 0.00716257, 0.00097845, -0.02435061, -171.44641113, 139.96322632, 192.04452515, -0.01765862, 0.01014404, 0.99979264, -0.00036201, 0.00226136, -0.00485853, 0.00000000, 0.00000000, 0.00000000, -0.86935642, 0.49408069, -0.01018286, 0.00004701
424170063.520031, -0.01615906, 0.01580811, 0.99244690, 0.00721956, 0.00808216, -0.00793702, -171.10420227, 140.64764404, 192.04452515, -0.01766679, 0.01021877, 0.99979168, 0.00228593, 0.00432285, -0.00711593, 0.00000000, 0.00000000, 0.00000000, -0.86934463, 0.49410098, -0.01020488, 0.00007724
424170063.535070, -0.01615906, 0.01580811, 0.99244690, 0.02593067, -0.00142160, -0.01837555, -171.10420227, 140.64764404, 192.04452515, -0.01760798, 0.01023481, 0.99979258, 0.00225764, 0.00333025, -0.00386668, 0.00000000, 0.00000000, 0.00000000, -0.86932144, 0.49414222, -0.01018328, 0.00009826
424170063.550652, -0.01777649, 0.01239014, 0.99742126, 0.01410916, -0.00606295, -0.02439562, -171.61750793, 139.44990540, 191.21244812, -0.01745722, 0.01052377, 0.99979222, 0.00186274, 0.00281241, -0.00411046, 0.00000000, 0.00000000, 0.00000000, -0.86931020, 0.49416180, -0.01018915, 0.00026089
424170063.566658, -0.01901245, 0.01339722, 0.99670410, 0.02001765, -0.00373855, -0.02080355, -169.39315796, 138.25218201, 189.71469116, -0.01736451, 0.01060866, 0.99979293, 0.00108338, 0.00100328, -0.00311936, 0.00000000, 0.00000000, 0.00000000, -0.86933429, 0.49411978, -0.01016981, 0.00032119
424170063.582288, -0.01603699, 0.01211548, 0.99591064, 0.01646739, -0.00728588, -0.03137497, -170.41978455, 136.88334656, 189.04902649, -0.01730224, 0.01074034, 0.99979264, -0.00171021, 0.00265688, -0.00308852, 0.00000000, 0.00000000, 0.00000000, -0.86934464, 0.49410142, -0.01017527, 0.00039404
424170063.598618, -0.01528931, 0.01161194, 0.99566650, 0.01531744, -0.00612634, -0.03369538, -168.36653137, 138.25218201, 190.04753113, -0.01714792, 0.01085088, 0.99979407, 0.00111093, 0.00126460, -0.00388344, 0.00000000, 0.00000000, 0.00000000, -0.86935398, 0.49408572, -0.01013548, 0.00048041
424170063.614043, -0.01528931, 0.01161194, 0.99566650, 0.01409558, -0.00844009, -0.03141891, -169.39315796, 139.62101746, 190.71319580, -0.01697626, 0.01091988, 0.99979627, 0.00266352, -0.00007089, -0.00441967, 0.00000000, 0.00000000, 0.00000000, -0.86938321, 0.49403538, -0.01007787, 0.00055340
424170063.629885, -0.01606750, 0.01310730, 0.99641418, 0.00596149, 0.00102771, -0.01737926, -170.93309021, 140.13432312, 190.87960815, -0.01678280, 0.01096680, 0.99979901, 0.00169185, 0.00111816, -0.00587201, 0.00000000, 0.00000000, 0.00000000, -0.86940955, 0.49399042, -0.01000531, 0.00062211
424170063.647445, -0.01580811, 0.01161194, 0.99340820, 0.00364107, 0.00458543, -0.01036050, -170.59088135, 140.47653198, 190.54678345, -0.01668581, 0.01090885, 0.99980128, 0.00145754, -0.00199772, -0.00491296, 0.00000000, 0.00000000, 0.00000000, -0.86943853, 0.49394055, -0.00994880, 0.00062145
424170063.661297, -0.01654053, 0.01187134, 0.99415588, 0.01415896, -0.00374973, -0.02784814, -171.10420227, 139.96322632, 191.71170044, -0.01670876, 0.01082375, 0.99980181, 0.00090065, 0.00078819, -0.00639361, 0.00000000, 0.00000000, 0.00000000, -0.86940001, 0.49400864, -0.00993779, 0.00057800
424170063.679366, -0.01702881, 0.01239014, 0.99615479, 0.01648976, -0.00132093, -0.01032508, -170.76199341, 139.62101746, 190.71319580, -0.01658288, 0.01086204, 0.99980348, 0.00004235, 0.00100929, -0.00564761, 0.00000000, 0.00000000, 0.00000000, -0.86941539, 0.49398242, -0.00989251, 0.00062605
424170063.693080, -0.01702881, 0.01239014, 0.99615479, 0.01525592, -0.00841799, -0.02675065, -170.76199341, 139.62101746, 190.71319580, -0.01652936, 0.01087088, 0.99980426, -0.00049945, 0.00125986, -0.00339010, 0.00000000, 0.00000000, 0.00000000, -0.86938196, 0.49404164, -0.00987146, 0.00064244
424170063.708815, -0.01852417, 0.01315308, 0.99617004, 0.01178529, -0.00370126, -0.02205257, -169.56427002, 139.10769653, 190.87960815, -0.01647813, 0.01101234, 0.99980360, -0.00256484, 0.00313255, -0.00535778, 0.00000000, 0.00000000, 0.00000000, -0.86937258, 0.49405779, -0.00988415, 0.00071641
424170063.725163, -0.01753235, 0.01242065, 0.99243164, 0.00838629, 0.00569118, -0.01611212, -169.39315796, 137.56776428, 190.71319580, -0.01636332, 0.01118312, 0.99980354, 0.00023479, 0.00363316, -0.00662425, 0.00000000, 0.00000000, 0.00000000, -0.86938472, 0.49403643, -0.00987642, 0.00081926
424170063.740403, -0.01678467, 0.01188660, 0.99491882, 0.00955755, 0.00329353, -0.02545103, -168.70874023, 136.88334656, 189.38186646, -0.01633676, 0.01117126, 0.99980414, -0.00119559, 0.00124940, -0.00737250, 0.00000000, 0.00000000, 0.00000000, -0.86939210, 0.49402372, -0.00986192, 0.00082081
424170063.756929, -0.01678467, 0.01239014, 0.99615479, 0.01069392, 0.00335851, -0.01379917, -170.07757568, 137.90997314, 190.38035583, -0.01625146, 0.01124594, 0.99980468, -0.00053321, 0.00064065, -0.00488587, 0.00000000, 0.00000000, 0.00000000, -0.86939500, 0.49401891, -0.00984329, 0.00087440
424170063.772067, -0.01678467, 0.01239014, 0.99615479, 0.01999661, -0.00250018, -0.00914423, -169.90646362, 139.10769653, 190.54678345, -0.01629326, 0.01124992, 0.99980396, -0.00201729, 0.00237618, -0.00461048, 0.00000000, 0.00000000, 0.00000000, -0.86936998, 0.49406258, -0.00986248, 0.00086531
424170063.788337, -0.01608276, 0.01335144, 0.99467468, 0.01767141, -0.00253773, -0.01731641, -171.78862000, 139.96322632, 190.38035583, -0.01627711, 0.01134285, 0.99980319, -0.00029394, 0.00126091, -0.00714266, 0.00000000, 0.00000000, 0.00000000, -0.86933597, 0.49412200, -0.00987849, 0.00090903
424170063.803593, -0.01762390, 0.01559448, 0.99246216, 0.01297679, -0.00253347, -0.02085708, -171.78862000, 140.64764404, 191.71170044, -0.01624838, 0.01142613, 0.99980271, -0.00374063, 0.00149806, -0.00636398, 0.00000000, 0.00000000, 0.00000000, -0.86933726, 0.49411950, -0.00988657, 0.00095235
424170063.819610, -0.01925659, 0.01290894, 0.99342346, 0.01063161, -0.00253506, -0.02320918, -171.61750793, 139.44990540, 189.54827881, -0.01614493, 0.01149372, 0.99980360, -0.00147897, 0.00410076, -0.00734144, 0.00000000, 0.00000000, 0.00000000, -0.86933748, 0.49411957, -0.00985830, 0.00100730
424170063.835285, -0.02072144, 0.01269531, 0.99444580, 0.00829442, -0.00255104, -0.02788942, -171.61750793, 139.44990540, 189.54827881, -0.01611040, 0.01152518, 0.99980378, -0.00314620, 0.00138375, -0.00638033, 0.00000000, 0.00000000, 0.00000000, -0.86932216, 0.49414661, -0.00985109, 0.00102920
424170063.851377, -0.02072144, 0.01269531, 0.99444580, 0.00828643, -0.00253666, -0.02556155, -170.07757568, 138.93659973, 190.71319580, -0.01607434, 0.01156654, 0.99980390, -0.00464710, 0.00112878, -0.00535810, 0.00000000, 0.00000000, 0.00000000, -0.86935564, 0.49408777, -0.00984556, 0.00105675
424170063.866910, -0.01873779, 0.01165771, 0.99668884, 0.01760669, -0.00602487, -0.01504739, -170.07757568, 138.59439087, 189.71469116, -0.01599303, 0.01163422, 0.99980444, -0.00134095, 0.00196136, -0.00711337, 0.00000000, 0.00000000, 0.00000000, -0.86936326, 0.49407461, -0.00982693, 0.00110642
424170063.882333, -0.01655579, 0.01139832, 0.98991394, 0.00825527, -0.00368235, -0.02208932, -170.07757568, 137.90997314, 188.71620178, -0.01604706, 0.01161382, 0.99980378, -0.00293488, -0.00016973, -0.00638032, 0.00000000, 0.00000000, 0.00000000, -0.86933416, 0.49412551, -0.00984544, 0.00108362
424170063.898464, -0.01704407, 0.01284790, 0.99766541, 0.00830533, -0.00136913, -0.02554185, -169.56427002, 139.44990540, 188.21694946, -0.01589318, 0.01166094, 0.99980569, -0.00066260, -0.00026263, -0.00989175, 0.00000000, 0.00000000, 0.00000000, -0.86935460, 0.49409051, -0.00979014, 0.00114252
424170063.914124, -0.01702881, 0.01188660, 0.99415588, 0.01286760, -0.00954424, -0.02213912, -171.78862000, 139.27880859, 189.71469116, -0.01589853, 0.01171990, 0.99980491, -0.00114554, 0.00112800, -0.00213952, 0.00000000, 0.00000000, 0.00000000, -0.86935114, 0.49409620, -0.00980704, 0.00116677
424170063.930059, -0.01702881, 0.01188660, 0.99415588, 0.01539227, 0.00334706, -0.01142256, -171.10420227, 139.62101746, 190.04753113, -0.01582458, 0.01174253, 0.99980581, -0.00120423, 0.00014407, -0.00564995, 0.00000000, 0.00000000, 0.00000000, -0.86937259, 0.49405891, -0.00978043, 0.00119530
424170063.947673, -0.01948547, 0.01217651, 0.99568176, 0.00942253, -0.00607307, -0.03026416, -171.78862000, 139.27880859, 190.71319580, -0.01593716, 0.01182817, 0.99980301, -0.00583714, 0.00358321, -0.00657793, 0.00000000, 0.00000000, 0.00000000, -0.86935620, 0.49408634, -0.00985057, 0.00120440
424170063.961665, -0.01919556, 0.01095581, 0.99615479, 0.01416589, -0.00256143, -0.02433650, -172.81524658, 139.27880859, 190.04753113, -0.01589680, 0.01192740, 0.99980247, -0.00096416, 0.00314829, -0.00412073, 0.00000000, 0.00000000, 0.00000000, -0.86936218, 0.49407554, -0.00985753, 0.00125763
424170063.979165, -0.01580811, 0.01161194, 0.99415588, 0.01533688, -0.00135741, -0.01732093, -170.24867249, 138.76548767, 189.88111877, -0.01587388, 0.01187651, 0.99980348, -0.00332168, -0.00092070, -0.00364868, 0.00000000, 0.00000000, 0.00000000, -0.86939116, 0.49402504, -0.00983492, 0.00124174
424170063.993199, -0.01754761, 0.01312256, 0.99792480, 0.02231569, -0.00845607, -0.02667768, -170.24867249, 138.76548767, 189.88111877, -0.01583869, 0.01190446, 0.99980366, 0.00003059, -0.00029252, -0.00564781, 0.00000000, 0.00000000, 0.00000000, -0.86938509, 0.49403583, -0.00982654, 0.00126246
424170064.009056, -0.01754761, 0.01312256, 0.99792480, 0.01887089, -0.00138325, -0.01844852, -169.56427002, 138.08106995, 189.54827881, -0.01573725, 0.01203134, 0.99980378, -0.00181036, 0.00109122, -0.00187897, 0.00000000, 0.00000000, 0.00000000, -0.86938835, 0.49403014, -0.00981378, 0.00134275
424170064.025158, -0.01673889, 0.00991821, 0.99365234, 0.00714899, -0.00139843, -0.03137364, -169.22206116, 138.42327881, 189.88111877, -0.01565714, 0.01213086, 0.99980384, -0.00330953, -0.00093091, -0.00538855, 0.00000000, 0.00000000, 0.00000000, -0.86939464, 0.49401911, -0.00980352, 0.00140593
424170064.040571, -0.01799011, 0.01141357, 0.99568176, 0.01420903, 0.00216515, -0.01494619, -168.70874023, 138.59439087, 189.04902649, -0.01566582, 0.01209844, 0.99980408, -0.00508614, 0.00157343, -0.00534303, 0.00000000, 0.00000000, 0.00000000, -0.86942514, 0.49396555, -0.00979919, 0.00139029
424170064.056732, -0.01699829, 0.01066589, 0.99314880, 0.01766288, -0.00612474, -0.03134301, -168.70874023, 138.93659973, 190.04753113, -0.01570495, 0.01210440, 0.99980342, -0.00228516, -0.00069083, -0.00412164, 0.00000000, 0.00000000, 0.00000000, -0.86942448, 0.49396637, -0.00981768, 0.00138321
424170064.072200, -0.01583862, 0.01258850, 0.99340820, 0.00252787, 0.00928245, -0.00680225, -171.27529907, 138.76548767, 189.54827881, -0.01562570, 0.01217988, 0.99980372, -0.00137259, -0.00151399, -0.00665492, 0.00000000, 0.00000000, 0.00000000, -0.86943234, 0.49395270, -0.00980185, 0.00143575
424170064.088837, -0.01892090, 0.00949097, 0.99440002, 0.00949710, -0.00020107, -0.02434582, -171.10420227, 140.64764404, 190.38035583, -0.01568085, 0.01209308, 0.99980390, -0.00015777, 0.00049542, -0.00639571, 0.00000000, 0.00000000, 0.00000000, -0.86943195, 0.49395348, -0.00980439, 0.00138439
424170064.103851, -0.01892090, 0.00949097, 0.99440002, 0.01765250, -0.00370472, -0.01733611, -171.95971680, 140.13432312, 190.87960815, -0.01560476, 0.01216133, 0.99980426, -0.00172923, 0.00241081, -0.00386312, 0.00000000, 0.00000000, 0.00000000, -0.86943652, 0.49394561, -0.00978815, 0.00143294
424170064.119890, -0.01625061, 0.01065063, 0.99565125, 0.00942413, -0.00367410, -0.01974920, -172.13082886, 139.96322632, 190.71319580, -0.01570649, 0.01215675, 0.99980277, -0.00377898, 0.00001976, -0.00412098, 0.00000000, 0.00000000, 0.00000000, -0.86943218, 0.49395248, -0.00983126, 0.00140574
424170064.135508, -0.01754761, 0.01263428, 0.99493408, 0.01769830, -0.00138431, -0.01962457, -170.93309021, 138.76548767, 189.54827881, -0.01560572, 0.01210697, 0.99980491, -0.00020238, -0.00073917, -0.00587792, 0.00000000, 0.00000000, 0.00000000, -0.86944610, 0.49392908, -0.00977511, 0.00140926
424170064.150854, -0.01802063, 0.01240540, 0.99317932, 0.01294696, -0.00488237, -0.02322436, -170.93309021, 138.76548767, 189.54827881, -0.01554117, 0.01216509, 0.99980521, -0.00200644, 0.00046918, -0.00487114, 0.00000000, 0.00000000, 0.00000000, -0.86945032, 0.49392180, -0.00976139, 0.00145055
424170064.167434, -0.01756287, 0.01313782, 0.99394226, 0.01413473, -0.00370685, -0.02086454, -169.39315796, 138.93659973, 189.38186646, -0.01549192, 0.01220132, 0.99980557, -0.00252871, 0.00020408, -0.00662622, 0.00000000, 0.00000000, 0.00000000, -0.86945930, 0.49390616, -0.00974890, 0.00147864
424170064.182402, -0.01756287, 0.01313782, 0.99394226, 0.01062947, -0.00012890, -0.01153016, -169.73536682, 136.54113770, 189.38186646, -0.01545145, 0.01224940, 0.99980557, -0.00337790, 0.00212438, -0.00610746, 0.00000000, 0.00000000, 0.00000000, -0.86947105, 0.49388550, -0.00974314, 0.00150977
424170064.199173, -0.01707458, 0.01336670, 0.99342346, 0.01055491, -0.00600090, -0.01744850, -170.93309021, 140.13432312, 189.21545410, -0.01549320, 0.01222681, 0.99980521, -0.00174923, -0.00131677, -0.00365043, 0.00000000, 0.00000000, 0.00000000, -0.86944606, 0.49392929, -0.00975579, 0.00148915
424170064.214903, -0.01780701, 0.01312256, 0.99768066, 0.02346564, -0.00961588, -0.02435727, -171.78862000, 139.27880859, 189.71469116, -0.01550897, 0.01225860, 0.99980456, -0.00403754, 0.00138276, -0.00535878, 0.00000000, 0.00000000, 0.00000000, -0.86943188, 0.49395394, -0.00977054, 0.00149880
424170064.230191, -0.01788330, 0.01531982, 0.99296570, 0.01058580, -0.00485521, -0.02092073, -172.64413452, 140.13432312, 190.21394348, -0.01544247, 0.01234740, 0.99980450, -0.00236454, 0.00077516, -0.00212385, 0.00000000, 0.00000000, 0.00000000, -0.86940576, 0.49399988, -0.00976365, 0.00155331
424170064.247710, -0.01727295, 0.01211548, 0.99717712, 0.01764957, -0.00490075, -0.02201156, -172.30192566, 140.13432312, 189.88111877, -0.01544095, 0.01238153, 0.99980414, -0.00244235, 0.00293830, -0.00683842, 0.00000000, 0.00000000, 0.00000000, -0.86942491, 0.49396597, -0.00977136, 0.00156890
424170064.261862, -0.01727295, 0.01211548, 0.99717712, 0.01642478, -0.00841026, -0.02441080, -171.61750793, 140.13432312, 190.54678345, -0.01528377, 0.01243857, 0.99980581, 0.00063533, 0.00159951, -0.00714530, 0.00000000, 0.00000000, 0.00000000, -0.86944477, 0.49393188, -0.00971704, 0.00163291
424170064.279667, -0.01704407, 0.01213074, 0.99415588, 0.01883840, -0.00492818, -0.02549125, -169.22206116, 138.42327881, 191.21244812, -0.01523276, 0.01253399, 0.99980539, -0.00303201, 0.00011555, -0.00337597, 0.00000000, 0.00000000, 0.00000000, -0.86945670, 0.49391068, -0.00971840, 0.00168723
424170064.293609, -0.01762390, 0.01605225, 0.99694824, 0.01529906, -0.00369194, -0.01736035, -169.22206116, 138.42327881, 191.21244812, -0.01512954, 0.01266782, 0.99980527, -0.00073960, 0.00089724, -0.00487121, 0.00000000, 0.00000000, 0.00000000, -0.86947516, 0.49387812, -0.00970651, 0.00177127
424170064.309177, -0.01751709, 0.01165771, 0.99493408, 0.01421595, 0.00335345, -0.01143481, -169.90646362, 139.10769653, 189.88111877, -0.01504286, 0.01283444, 0.99980450, -0.00258104, 0.00321780, -0.00285623, 0.00000000, 0.00000000, 0.00000000, -0.86948292, 0.49386404, -0.00970994, 0.00186528
424170064.325307, -0.01593018, 0.01675415, 0.99594116, 0.01175146, -0.00604298, -0.02325605, -169.56427002, 137.73886108, 189.21545410, -0.01501198, 0.01284004, 0.99980485, -0.00250511, -0.00118233, -0.00487079, 0.00000000, 0.00000000, 0.00000000, -0.86945768, 0.49390867, -0.00969799, 0.00187485
424170064.340922, -0.01593018, 0.01675415, 0.99594116, 0.01052801, -0.00715405, -0.01514007, -170.07757568, 137.56776428, 189.71469116, -0.01497474, 0.01288382, 0.99980485, -0.00284753, 0.00025400, -0.00612200, 0.00000000, 0.00000000, 0.00000000, -0.86946856, 0.49388952, -0.00969257, 0.00190329
424170064.356684, -0.01797485, 0.01116943, 0.99591064, 0.00824035, -0.00485707, -0.02327310, -169.56427002, 137.73886108, 190.21394348, -0.01494416, 0.01294908, 0.99980450, -0.00408355, 0.00021926, -0.00712870, 0.00000000, 0.00000000, 0.00000000, -0.86944316, 0.49393403, -0.00969549, 0.00193872
424170064.372343, -0.01808167, 0.01458740, 0.99444580, 0.00948085, -0.00017231, -0.01969008, -169.90646362, 137.73886108, 190.54678345, -0.01498872, 0.01288897, 0.99980462, -0.00544280, -0.00239092, -0.00686941, 0.00000000, 0.00000000, 0.00000000, -0.86946201, 0.49390091, -0.00969995, 0.00190195
424170064.388401, -0.01727295, 0.01139832, 0.99493408, 0.01762959, -0.00486506, -0.01619175, -171.78862000, 139.62101746, 190.71319580, -0.01497380, 0.01292615, 0.99980432, -0.00310787, 0.00166125, -0.00535853, 0.00000000, 0.00000000, 0.00000000, -0.86945303, 0.49391659, -0.00970268, 0.00192163
424170064.404066, -0.01733398, 0.01409912, 0.99444580, 0.01062095, -0.00371617, -0.02555676, -171.61750793, 138.76548767, 189.54827881, -0.01502174, 0.01293568, 0.99980348, -0.00225121, -0.00153737, -0.00486941, 0.00000000, 0.00000000, 0.00000000, -0.86944854, 0.49392407, -0.00972589, 0.00191384
424170064.420278, -0.01733398, 0.01409912, 0.99444580, 0.01771588, 0.00098564, -0.01376561, -169.73536682, 137.90997314, 190.04753113, -0.01495456, 0.01286664, 0.99980539, -0.00179959, -0.00197186, -0.00314706, 0.00000000, 0.00000000, 0.00000000, -0.86946151, 0.49390220, -0.00967958, 0.00190066
424170064.435589, -0.01603699, 0.01138306, 0.99465942, 0.00135209, 0.00808562, -0.01265374, -169.22206116, 137.39665222, 189.54827881, -0.01495197, 0.01290907, 0.99980485, -0.00102398, -0.00347914, -0.00590839, 0.00000000, 0.00000000, 0.00000000, -0.86946614, 0.49389379, -0.00968892, 0.00191985
424170064.452283, -0.01428223, 0.00985718, 0.99438477, 0.01178928, -0.00370845, -0.02321664, -169.39315796, 138.25218201, 189.38186646, -0.01499181, 0.01277025, 0.99980605, -0.00327296, -0.00034960, -0.00563492, 0.00000000, 0.00000000, 0.00000000, -0.86949566, 0.49384242, -0.00967184, 0.00185022
424170064.467370, -0.01704407, 0.01239014, 0.99465942, 0.01301727, 0.00099682, -0.01614222, -169.39315796, 138.25218201, 189.38186646, -0.01496282, 0.01267399, 0.99980772, 0.00068059, -0.00281682, -0.00542296, 0.00000000, 0.00000000, 0.00000000, -0.86947521, 0.49387926, -0.00963554, 0.00181512
424170064.482755, -0.01969910, 0.01097107, 0.99443054, 0.00484456, 0.00573192, -0.01265667, -168.70874023, 137.90997314, 188.71620178, -0.01500437, 0.01261652, 0.99980783, -0.00203969, -0.00022638, -0.00514840, 0.00000000, 0.00000000, 0.00000000, -0.86945908, 0.49390770, -0.00963947, 0.00177956
424170064.498928, -0.01969910, 0.01097107, 0.99443054, 0.00829708, -0.00135502, -0.02321398, -170.93309021, 139.44990540, 189.88111877, -0.01512663, 0.01248530, 0.99980766, -0.00457247, -0.00151423, -0.00537709, 0.00000000, 0.00000000, 0.00000000, -0.86944426, 0.49393369, -0.00966026, 0.00169202
424170064.514759, -0.01551819, 0.00988770, 0.99339294, 0.00945103, -0.00252148, -0.02205737, -171.95971680, 140.13432312, 190.21394348, -0.01507090, 0.01250204, 0.99980825, -0.00102712, 0.00158182, -0.00513358, 0.00000000, 0.00000000, 0.00000000, -0.86946315, 0.49390076, -0.00964010, 0.00171343
424170064.530523, -0.01490784, 0.01452637, 0.99342346, 0.00936740, -0.00717615, -0.01980833, -171.78862000, 141.67427063, 188.71620178, -0.01501812, 0.01246891, 0.99980944, 0.00116314, -0.00090275, -0.00441763, 0.00000000, 0.00000000, 0.00000000, -0.86946391, 0.49390003, -0.00960897, 0.00171207
424170064.546944, -0.01931763, 0.01463318, 0.99095154, 0.00942013, -0.00366691, -0.01858540, -171.10420227, 140.30543518, 191.04602051, -0.01488914, 0.01256111, 0.99981022, -0.00001870, 0.00196526, -0.00638679, 0.00000000, 0.00000000, 0.00000000, -0.86947094, 0.49388805, -0.00957563, 0.00178415
424170064.562200, -0.01783752, 0.01411438, 0.99494934, 0.01180020, -0.00252707, -0.02086906, -170.07757568, 138.93659973, 190.71319580, -0.01491532, 0.01258322, 0.99980956, -0.00440231, 0.00204996, -0.00885804, 0.00000000, 0.00000000, 0.00000000, -0.86946555, 0.49389720, -0.00959250, 0.00178719
424170064.579807, -0.01907349, 0.01535034, 0.99595642, 0.00707096, -0.00366158, -0.01977344, -169.39315796, 138.59439087, 189.04902649, -0.01490373, 0.01263735, 0.99980909, -0.00293380, 0.00147703, -0.00485973, 0.00000000, 0.00000000, 0.00000000, -0.86949205, 0.49385028, -0.00960073, 0.00181410
424170064.593919, -0.01907349, 0.01535034, 0.99595642, 0.01289476, -0.00839109, -0.02444729, -169.22206116, 137.05444336, 190.21394348, -0.01486089, 0.01261739, 0.99980998, -0.00259516, -0.00291280, -0.00440285, 0.00000000, 0.00000000, 0.00000000, -0.86949911, 0.49383831, -0.00957715, 0.00181614
424170064.610095, -0.01754761, 0.01287842, 0.99493408, 0.01058713, -0.00605789, -0.02675998, -168.70874023, 138.25218201, 189.71469116, -0.01483657, 0.01271009, 0.99980915, -0.00322984, 0.00116014, -0.00562275, 0.00000000, 0.00000000, 0.00000000, -0.86949546, 0.49384432, -0.00958948, 0.00186238
424170064.625348, -0.01852417, 0.01313782, 0.99792480, 0.01528947, -0.00607627, -0.02554744, -168.70874023, 138.25218201, 189.71469116, -0.01474749, 0.01266078, 0.99981111, -0.00280011, 0.00021764, -0.00487701, 0.00000000, 0.00000000, 0.00000000, -0.86952137, 0.49379968, -0.00953848, 0.00186343
424170064.641003, -0.01319885, 0.01351929, 0.99092102, 0.00724753, 0.00803209, -0.01608469, -169.90646362, 138.08106995, 189.54827881, -0.01471189, 0.01269955, 0.99981111, -0.00381228, 0.00043826, -0.00188632, 0.00000000, 0.00000000, 0.00000000, -0.86955030, 0.49374875, -0.00953246, 0.00188964
424170064.657192, -0.01319885, 0.01351929, 0.99092102, 0.01301860, -0.00020586, -0.02198147, -170.41978455, 139.96322632, 190.38035583, -0.01472552, 0.01264210, 0.99981165, 0.00152666, 0.00087719, -0.00889063, 0.00000000, 0.00000000, 0.00000000, -0.86956330, 0.49372614, -0.00952415, 0.00186154
424170064.672715, -0.01556396, 0.01136780, 0.99415588, 0.00839189, 0.00808296, -0.00676123, -171.10420227, 140.64764404, 190.38035583, -0.01475629, 0.01268905, 0.99981058, -0.00453082, 0.00095230, -0.00536480, 0.00000000, 0.00000000, 0.00000000, -0.86957145, 0.49371125, -0.00954909, 0.00187452
424170064.689203, -0.01725769, 0.01139832, 0.99568176, 0.01180952, -0.00374414, -0.02903645, -172.98634338, 139.79211426, 191.21244812, -0.01484679, 0.01261442, 0.99981022, -0.00195314, -0.00046842, -0.00763797, 0.00000000, 0.00000000, 0.00000000, -0.86955060, 0.49374778, -0.00957009, 0.00181933
424170064.704220, -0.01853943, 0.01315308, 0.99317932, 0.01529054, -0.00727948, -0.03138695, -170.07757568, 139.62101746, 191.04602051, -0.01476971, 0.01258690, 0.99981171, -0.00248798, -0.00118858, -0.00412993, 0.00000000, 0.00000000, 0.00000000, -0.86956581, 0.49372173, -0.00952973, 0.00182667
424170064.720247, -0.01678467, 0.01213074, 0.99641418, 0.01298611, -0.00375053, -0.02902446, -170.41978455, 138.93659973, 190.71319580, -0.01481844, 0.01264317, 0.99981028, -0.00372099, 0.00050990, -0.00663094, 0.00000000, 0.00000000, 0.00000000, -0.86957270, 0.49370888, -0.00956479, 0.00183926
424170064.735839, -0.01678467, 0.01213074, 0.99641418, 0.01407694, -0.00600569, -0.01508388, -170.59088135, 138.08106995, 191.21244812, -0.01480503, 0.01270500, 0.99980968, -0.00197964, -0.00057427, -0.00339549, 0.00000000, 0.00000000, 0.00000000, -0.86958903, 0.49367982, -0.00957416, 0.00186977
424170064.752520, -0.01651001, 0.01112366, 0.99864197, 0.01534726, -0.00377743, -0.03132783, -169.90646362, 138.76548767, 190.21394348, -0.01474879, 0.01267947, 0.99981081, -0.00150182, -0.00276126, -0.00815739, 0.00000000, 0.00000000, 0.00000000, -0.86957219, 0.49371007, -0.00954346, 0.00187222
424170064.767453, -0.01678467, 0.01164246, 0.99415588, 0.00480914, 0.00099123, -0.02437511, -169.90646362, 138.76548767, 190.21394348, -0.01478771, 0.01260408, 0.99981123, -0.00539966, -0.00187715, -0.00663189, 0.00000000, 0.00000000, 0.00000000, -0.86959623, 0.49366791, -0.00954169, 0.00183029
424170064.782928, -0.01748657, 0.01043701, 0.99316406, 0.00721930, 0.00448050, -0.02429149, -169.56427002, 138.08106995, 189.54827881, -0.01484565, 0.01261699, 0.99981022, -0.00297662, 0.00052083, -0.00663087, 0.00000000, 0.00000000, 0.00000000, -0.86958922, 0.49367975, -0.00957009, 0.00182148
424170064.799060, -0.01922607, 0.01243591, 0.99642944, 0.01060870, -0.00369487, -0.02206482, -169.73536682, 139.96322632, 190.04753113, -0.01488824, 0.01249172, 0.99981111, -0.00259833, -0.00205471, -0.00664707, 0.00000000, 0.00000000, 0.00000000, -0.86959329, 0.49367305, -0.00955767, 0.00175656
424170064.815865, -0.01783752, 0.01411438, 0.99343872, 0.01061403, -0.00490528, -0.02906840, -172.47303772, 140.64764404, 191.04602051, -0.01495732, 0.01250109, 0.99980998, -0.00426876, -0.00006518, -0.00338054, 0.00000000, 0.00000000, 0.00000000, -0.86958937, 0.49367936, -0.00959004, 0.00174351
424170064.830831, -0.01783752, 0.01411438, 0.99343872, 0.01642611, -0.00601129, -0.01389584, -170.59088135, 140.81874084, 189.54827881, -0.01489962, 0.01249233, 0.99981093, -0.00408231, -0.00055996, -0.00638749, 0.00000000, 0.00000000, 0.00000000, -0.86960019, 0.49366080, -0.00956275, 0.00175415
424170064.846964, -0.01687622, 0.01530457, 0.99618530, 0.01193629, 0.00563658, -0.02189518, -171.27529907, 141.16094971, 190.87960815, -0.01481991, 0.01249794, 0.99981207, 0.00069027, 0.00007530, -0.00791449, 0.00000000, 0.00000000, 0.00000000, -0.86961242, 0.49363981, -0.00952942, 0.00177650
424170064.862531, -0.01602173, 0.01136780, 0.99667358, 0.01300794, -0.00138751, -0.02432904, -169.56427002, 139.79211426, 188.54977417, -0.01483301, 0.01251447, 0.99981165, -0.00138708, -0.00308454, -0.00417568, 0.00000000, 0.00000000, 0.00000000, -0.86960127, 0.49365925, -0.00953924, 0.00178024
424170064.879335, -0.01824951, 0.01216125, 0.99568176, 0.01649482, -0.00253133, -0.01732866, -169.73536682, 138.25218201, 188.71620178, -0.01477180, 0.01246520, 0.99981320, -0.00124993, -0.00109740, -0.00313961, 0.00000000, 0.00000000, 0.00000000, -0.86962555, 0.49361725, -0.00950037, 0.00177439
424170064.894345, -0.01637268, 0.01506042, 0.99592590, 0.01763599, -0.00727815, -0.02903485, -169.05094910, 137.90997314, 188.38336182, -0.01482932, 0.01250390, 0.99981183, -0.00342020, -0.00034265, -0.00413009, 0.00000000, 0.00000000, 0.00000000, -0.86960676, 0.49364969, -0.00953501, 0.00177666
424170064.909868, -0.01637268, 0.01506042, 0.99592590, 0.01179061, -0.00491167, -0.02905615, -169.05094910, 137.90997314, 188.38336182, -0.01470377, 0.01258297, 0.99981272, -0.00185202, -0.00046749, -0.00588571, 0.00000000, 0.00000000, 0.00000000, -0.86963274, 0.49360435, -0.00949983, 0.00184253
424170064.924854, -0.01780701, 0.01287842, 0.99542236, 0.00828643, -0.00253666, -0.02556155, -169.90646362, 137.39665222, 189.88111877, -0.01469329, 0.01259444, 0.99981272, -0.00476166, -0.00212691, -0.00565684, 0.00000000, 0.00000000, 0.00000000, -0.86966756, 0.49354301, -0.00949798, 0.00185077
424170064.941258, -0.01971436, 0.01145935, 0.99369812, 0.01302126, 0.00098963, -0.01730629, -171.61750793, 140.13432312, 190.54678345, -0.01473273, 0.01263028, 0.99981171, -0.00237237, 0.00171298, -0.00586943, 0.00000000, 0.00000000, 0.00000000, -0.86966084, 0.49355432, -0.00952400, 0.00185650
424170064.957183, -0.01805115, 0.01338196, 0.99369812, 0.00719799, 0.00571914, -0.01263217, -171.10420227, 139.27880859, 190.04753113, -0.01474445, 0.01263293, 0.99981147, -0.00496991, -0.00117358, -0.00611337, 0.00000000, 0.00000000, 0.00000000, -0.86965909, 0.49355730, -0.00952976, 0.00185473
424170064.973046, -0.01704407, 0.01213074, 0.99266052, 0.01411715, -0.00607707, -0.02672349, -172.13082886, 140.64764404, 190.38035583, -0.01480018, 0.01263832, 0.99981058, -0.00325097, 0.00074364, -0.00611248, 0.00000000, 0.00000000, 0.00000000, -0.86964171, 0.49358748, -0.00955539, 0.00184299
424170064.988674, -0.01704407, 0.01213074, 0.99266052, 0.01878035, -0.00722702, -0.01971085, -170.93309021, 139.79211426, 190.54678345, -0.01470130, 0.01270159, 0.99981123, -0.00086267, -0.00083025, -0.00814255, 0.00000000, 0.00000000, 0.00000000, -0.86966902, 0.49353969, -0.00952790, 0.00189543
424170065.004412, -0.01799011, 0.01092529, 0.99415588, 0.01525432, -0.00721530, -0.02091141, -170.24867249, 139.10769653, 188.88261414, -0.01468118, 0.01272305, 0.99981129, 0.00010903, -0.00187405, -0.00617419, 0.00000000, 0.00000000, 0.00000000, -0.86967782, 0.49352419, -0.00952441, 0.00190990
424170065.020562, -0.01776123, 0.01092529, 0.99491882, 0.01767939, -0.00255184, -0.01964428, -169.22206116, 137.05444336, 189.21545410, -0.01464873, 0.01278436, 0.99981099, -0.00390596, 0.00157416, -0.00237445, 0.00000000, 0.00000000, 0.00000000, -0.86968108, 0.49351829, -0.00952542, 0.00194463
424170065.036008, -0.01651001, 0.01042175, 0.99165344, 0.01527722, -0.00605496, -0.02205550, -168.19543457, 138.42327881, 188.88261414, -0.01464159, 0.01277667, 0.99981117, -0.00311964, -0.00185137, -0.00489235, 0.00000000, 0.00000000, 0.00000000, -0.86967029, 0.49353742, -0.00952046, 0.00194284
424170065.051378, -0.01554871, 0.01185608, 0.99591064, 0.01647591, -0.00369833, -0.01734836, -169.22206116, 137.73886108, 188.54977417, -0.01458389, 0.01276502, 0.99981219, -0.00192612, -0.00234327, -0.00815872, 0.00000000, 0.00000000, 0.00000000, -0.86967684, 0.49352636, -0.00949246, 0.00195214
424170065.067727, -0.01554871, 0.01185608, 0.99591064, 0.00944996, -0.00131826, -0.01621785, -169.22206116, 137.73886108, 188.54977417, -0.01449603, 0.01283894, 0.99981248, -0.00306684, 0.00054301, -0.00637378, 0.00000000, 0.00000000, 0.00000000, -0.86968458, 0.49351289, -0.00947247, 0.00200612
424170065.083077, -0.01699829, 0.01091003, 0.99639893, 0.01641386, -0.00959191, -0.02675838, -169.39315796, 138.93659973, 190.04753113, -0.01454048, 0.01273761, 0.99981314, -0.00286980, -0.00474201, -0.00567252, 0.00000000, 0.00000000, 0.00000000, -0.86967838, 0.49352416, -0.00946681, 0.00195096
424170065.099495, -0.01823425, 0.01094055, 0.99516296, 0.01172616, -0.00839881, -0.02678714, -171.44641113, 139.96322632, 189.71469116, -0.01453763, 0.01274576, 0.99981308, -0.00423068, -0.00056925, -0.00762558, 0.00000000, 0.00000000, 0.00000000, -0.86968608, 0.49351055, -0.00946756, 0.00195535
424170065.115454, -0.02023315, 0.01245117, 0.99468994, 0.00950749, 0.00098031, -0.02199851, -172.13082886, 139.96322632, 190.71319580, -0.01442473, 0.01278990, 0.99981415, -0.00380952, -0.00184934, -0.00465119, 0.00000000, 0.00000000, 0.00000000, -0.86972150, 0.49344867, -0.00942920, 0.00200308
424170065.130820, -0.01631165, 0.01237488, 0.99392700, 0.00596282, -0.00017497, -0.02321850, -172.30192566, 140.13432312, 188.88261414, -0.01443752, 0.01287554, 0.99981290, -0.00579563, -0.00042437, -0.00512293, 0.00000000, 0.00000000, 0.00000000, -0.86972271, 0.49344588, -0.00945590, 0.00203720
424170065.147119, -0.01631165, 0.01237488, 0.99392700, 0.00373828, 0.01161751, -0.00558651, -170.93309021, 140.47653198, 190.21394348, -0.01439559, 0.01289157, 0.99981326, -0.00191606, -0.00051669, -0.00588627, 0.00000000, 0.00000000, 0.00000000, -0.86974551, 0.49340591, -0.00944152, 0.00205495
424170065.162704, -0.02072144, 0.01222229, 0.99095154, 0.01293391, -0.00365759, -0.01389291, -170.76199341, 138.59439087, 189.04902649, -0.01448506, 0.01282959, 0.99981278, -0.00262004, 0.00151367, -0.00687759, 0.00000000, 0.00000000, 0.00000000, -0.86973704, 0.49342058, -0.00946518, 0.00200576
424170065.179416, -0.01908875, 0.01535034, 0.99371338, 0.01417148, -0.00016938, -0.01498534, -168.19543457, 138.08106995, 190.87960815, -0.01467208, 0.01285934, 0.99980968, -0.00505753, -0.00040816, -0.00562326, 0.00000000, 0.00000000, 0.00000000, -0.86970576, 0.49347413, -0.00955398, 0.00197196
424170065.193803, -0.01757812, 0.01361084, 0.99519348, 0.01531105, -0.00371325, -0.02085229, -169.22206116, 137.39665222, 189.54827881, -0.01462969, 0.01290406, 0.99980968, -0.00445906, 0.00244628, -0.00609633, 0.00000000, 0.00000000, 0.00000000, -0.86970735, 0.49347136, -0.00954657, 0.00200190
424170065.209924, -0.01649475, 0.01063538, 0.99789429, 0.01999475, -0.00489888, -0.01965919, -169.22206116, 137.39665222, 189.54827881, -0.01454256, 0.01294851, 0.99981040, -0.00303556, 0.00066233, -0.00461693, 0.00000000, 0.00000000, 0.00000000, -0.86976249, 0.49337451, -0.00951942, 0.00204379
424170065.226131, -0.01649475, 0.01063538, 0.99789429, 0.01304416, 0.00215024, -0.01845065, -168.53764343, 138.42327881, 188.88261414, -0.01451449, 0.01297717, 0.99981046, -0.00198026, -0.00234179, -0.00191616, 0.00000000, 0.00000000, 0.00000000, -0.86977933, 0.49334485, -0.00951421, 0.00206351
424170065.241478, -0.01931763, 0.01487732, 0.99319458, 0.01529613, -0.00488797, -0.02203579, -170.41978455, 138.93659973, 189.38186646, -0.01445368, 0.01294026, 0.99981183, -0.00255987, -0.00203023, -0.00567118, 0.00000000, 0.00000000, 0.00000000, -0.86980844, 0.49329421, -0.00947853, 0.00206301
424170065.257327, -0.01599121, 0.01016235, 0.99539185, 0.00712076, -0.00134862, -0.02322596, -170.76199341, 140.64764404, 190.04753113, -0.01454405, 0.01300745, 0.99980962, -0.00352236, 0.00060339, -0.00585210, 0.00000000, 0.00000000, 0.00000000, -0.86980017, 0.49330768, -0.00953445, 0.00206979
424170065.273042, -0.01332092, 0.01034546, 0.99363708, 0.01411316, -0.00606988, -0.02555969, -172.30192566, 140.13432312, 191.21244812, -0.01446035, 0.01294436, 0.99981165, -0.00153086, -0.00278201, -0.00441981, 0.00000000, 0.00000000, 0.00000000, -0.86983703, 0.49324372, -0.00948233, 0.00206370
424170065.289748, -0.01658630, 0.01382446, 0.99768066, 0.01190433, 0.00569384, -0.01258344, -171.27529907, 138.76548767, 189.54827881, -0.01438905, 0.01292849, 0.99981290, 0.00106812, -0.00258303, -0.00617580, 0.00000000, 0.00000000, 0.00000000, -0.86986143, 0.49320132, -0.00944730, 0.00207484
424170065.304649, -0.01658630, 0.01382446, 0.99768066, 0.01293391, -0.00365759, -0.01389291, -169.39315796, 139.62101746, 189.04902649, -0.01442111, 0.01294124, 0.99981225, -0.00216520, 0.00088322, -0.00213160, 0.00000000, 0.00000000, 0.00000000, -0.86985321, 0.49321549, -0.00946442, 0.00207233
424170065.321232, -0.01535034, 0.01333618, 0.99467468, 0.00833143, 0.00458836, -0.00565629, -169.56427002, 138.08106995, 190.21394348, -0.01436881, 0.01296097, 0.99981278, -0.00322457, 0.00116867, -0.00912062, 0.00000000, 0.00000000, 0.00000000, -0.86984581, 0.49322880, -0.00944657, 0.00209366
424170065.336195, -0.01679993, 0.01213074, 0.99366760, 0.00955409, 0.00690265, -0.00793249, -168.70874023, 137.56776428, 190.38035583, -0.01443041, 0.01289651, 0.99981272, -0.00133192, -0.00226113, -0.00416146, 0.00000000, 0.00000000, 0.00000000, -0.86979682, 0.49331516, -0.00945767, 0.00204949
424170065.353196, -0.01217651, 0.01325989, 0.99539185, 0.01539334, 0.00214438, -0.01726208, -168.87985229, 137.39665222, 189.54827881, -0.01447999, 0.01295321, 0.99981123, -0.00231994, -0.00082247, -0.00614365, 0.00000000, 0.00000000, 0.00000000, -0.86978226, 0.49334010, -0.00949328, 0.00206165
424170065.368031, -0.01608276, 0.01310730, 0.99340820, 0.01069179, 0.00576441, -0.00212041, -168.87985229, 137.39665222, 189.54827881, -0.01441315, 0.01300888, 0.99981147, 0.00223664, 0.00025100, -0.00441965, 0.00000000, 0.00000000, 0.00000000, -0.86976682, 0.49336743, -0.00947801, 0.00210206
424170065.383430, -0.01608276, 0.01310730, 0.99340820, 0.01531105, -0.00371325, -0.02085229, -170.24867249, 139.10769653, 189.21545410, -0.01446060, 0.01304385, 0.99981034, -0.00162217, 0.00006345, -0.00640215, 0.00000000, 0.00000000, 0.00000000, -0.86973591, 0.49342135, -0.00950741, 0.00210497
424170065.399584, -0.01391602, 0.01353455, 0.99241638, 0.01410783, -0.00486000, -0.01855637, -172.98634338, 140.13432312, 189.54827881, -0.01439986, 0.01317075, 0.99980956, -0.00317826, 0.00045535, -0.00811035, 0.00000000, 0.00000000, 0.00000000, -0.86971911, 0.49345055, -0.00951238, 0.00217482
424170065.415480, -0.01745605, 0.00923157, 0.99189758, 0.01545406, 0.00563898, -0.01836702, -171.44641113, 139.96322632, 190.04753113, -0.01430290, 0.01322603, 0.99981022, -0.00129158, -0.00039338, -0.00464727, 0.00000000, 0.00000000, 0.00000000, -0.86973440, 0.49342394, -0.00948378, 0.00222308
424170065.431008, -0.01707458, 0.01336670, 0.99493408, 0.01885039, -0.00494975, -0.02898318, -171.27529907, 140.81874084, 190.21394348, -0.01438109, 0.01324722, 0.99980885, -0.00412782, -0.00082657, -0.00612597, 0.00000000, 0.00000000, 0.00000000, -0.86974006, 0.49341326, -0.00952299, 0.00221312
424170065.447255, -0.01966858, 0.01023865, 0.99467468, 0.01775077, 0.00212467, -0.01840191, -170.59088135, 138.76548767, 191.21244812, -0.01428389, 0.01335654, 0.99980879, -0.00279069, 0.00001016, -0.00487469, 0.00000000, 0.00000000, 0.00000000, -0.86978411, 0.49333557, -0.00950749, 0.00228550
424170065.463128, -0.01432800, 0.01133728, 0.99539185, 0.01640614, -0.00597560, -0.00807604, -170.59088135, 138.76548767, 189.88111877, -0.01439635, 0.01338492, 0.99980676, -0.00527223, -0.00314627, -0.00513209, 0.00000000, 0.00000000, 0.00000000, -0.86979430, 0.49331659, -0.00956336, 0.00227030
424170065.479719, -0.01432800, 0.01133728, 0.99539185, 0.01404045, -0.00954344, -0.02096307, -170.24867249, 138.42327881, 189.88111877, -0.01435559, 0.01351714, 0.99980557, -0.00670154, 0.00189423, -0.00833525, 0.00000000, 0.00000000, 0.00000000, -0.86977621, 0.49334788, -0.00957833, 0.00233752
424170065.494061, -0.01556396, 0.01136780, 0.99516296, 0.01656619, 0.00214518, -0.01608603, -169.22206116, 139.10769653, 188.54977417, -0.01434447, 0.01351026, 0.99980581, -0.00439333, -0.00256971, -0.00539055, 0.00000000, 0.00000000, 0.00000000, -0.86974913, 0.49339575, -0.00957193, 0.00233675
424170065.510185, -0.01602173, 0.01161194, 0.99740601, 0.01769031, -0.00137020, -0.01729670, -171.61750793, 136.71224976, 188.88261414, -0.01436191, 0.01350454, 0.99980569, -0.00367398, -0.00062613, -0.00462744, 0.00000000, 0.00000000, 0.00000000, -0.86974451, 0.49340381, -0.00957812, 0.00232987
424170065.526282, -0.01797485, 0.01068115, 0.99491882, 0.01060657, -0.00128897, -0.01038580, -171.61750793, 136.71224976, 188.88261414, -0.01425816, 0.01353957, 0.99980670, -0.00176357, -0.00192764, -0.00240067, 0.00000000, 0.00000000, 0.00000000, -0.86977368, 0.49335290, -0.00954150, 0.00237126
424170065.541973, -0.01708984, 0.01313782, 0.99017334, 0.01885891, -0.00136194, -0.01495631, -171.10420227, 138.93659973, 189.71469116, -0.01428624, 0.01357950, 0.99980575, -0.00368861, -0.00289834, -0.00488691, 0.00000000, 0.00000000, 0.00000000, -0.86974943, 0.49339517, -0.00956368, 0.00238123
424170065.557366, -0.01708984, 0.01313782, 0.99017334, 0.01305508, 0.00333135, -0.01610280, -170.59088135, 140.13432312, 190.54678345, -0.01426385, 0.01363673, 0.99980527, -0.00403144, -0.00046840, -0.00838071, 0.00000000, 0.00000000, 0.00000000, -0.86973571, 0.49341912, -0.00956813, 0.00241138
424170065.573298, -0.01603699, 0.01237488, 0.99641418, 0.01179914, -0.00132386, -0.01502928, -171.95971680, 139.44990540, 189.88111877, -0.01431039, 0.01363801, 0.99980462, -0.00224539, -0.00152253, -0.00587759, 0.00000000, 0.00000000, 0.00000000, -0.86973537, 0.49341938, -0.00958869, 0.00240045
424170065.589871, -0.01289368, 0.01252747, 0.99539185, 0.01770523, -0.00019574, -0.01611292, -170.59088135, 139.10769653, 190.54678345, -0.01428812, 0.01363523, 0.99980497, -0.00127584, -0.00129087, -0.00213954, 0.00000000, 0.00000000, 0.00000000, -0.86972025, 0.49344620, -0.00957839, 0.00240444
424170065.604917, -0.01580811, 0.01136780, 0.99316406, 0.01075624, 0.00925209, -0.00438916, -171.61750793, 138.76548767, 189.21545410, -0.01417752, 0.01369701, 0.99980569, 0.00128385, -0.00116955, -0.00441383, 0.00000000, 0.00000000, 0.00000000, -0.86973085, 0.49342790, -0.00954549, 0.00245880
424170065.621863, -0.01954651, 0.01416016, 0.99169922, 0.01761761, -0.00484349, -0.01269982, -168.53764343, 138.42327881, 189.88111877, -0.01422854, 0.01374242, 0.99980432, -0.00157957, -0.00237462, -0.00664027, 0.00000000, 0.00000000, 0.00000000, -0.86971067, 0.49346277, -0.00957898, 0.00246558
424170065.637043, -0.01954651, 0.01416016, 0.99169922, 0.01406868, -0.00959351, -0.02911075, -169.22206116, 137.73886108, 188.54977417, -0.01421952, 0.01379147, 0.99980378, -0.00236679, -0.00066891, -0.00738740, 0.00000000, 0.00000000, 0.00000000, -0.86969059, 0.49349789, -0.00958726, 0.00248875
424170065.652639, -0.01562500, 0.01382446, 0.99417114, 0.01298664, -0.00014860, -0.01266972, -170.24867249, 139.10769653, 189.21545410, -0.01426970, 0.01379096, 0.99980307, -0.00544466, -0.00208747, -0.00711203, 0.00000000, 0.00000000, 0.00000000, -0.86970601, 0.49347035, -0.00960888, 0.00247645
424170065.668551, -0.01876831, 0.01289368, 0.99592590, 0.01063294, -0.00373775, -0.02904870, -170.59088135, 139.79211426, 190.54678345, -0.01422026, 0.01380741, 0.99980354, -0.00183198, -0.00143253, -0.00587655, 0.00000000, 0.00000000, 0.00000000, -0.86971830, 0.49344894, -0.00959138, 0.00249604
424170065.683564, -0.01634216, 0.01310730, 0.99491882, 0.02234392, -0.00490448, -0.01847115, -170.59088135, 139.79211426, 190.54678345, -0.01424656, 0.01376928, 0.99980372, -0.00452175, -0.00087560, -0.00387780, 0.00000000, 0.00000000, 0.00000000, -0.86973631, 0.49341726, -0.00959332, 0.00247331
424170065.699611, -0.01414490, 0.01332092, 0.99241638, 0.01877635, -0.00721983, -0.01854705, -170.41978455, 139.62101746, 189.38186646, -0.01426524, 0.01373497, 0.99980390, -0.00207692, -0.00062767, -0.00488508, 0.00000000, 0.00000000, 0.00000000, -0.86972718, 0.49343346, -0.00959302, 0.00245360
424170065.715489, -0.01414490, 0.01332092, 0.99241638, 0.01889380, -0.00022317, -0.01959261, -170.07757568, 139.96322632, 190.71319580, -0.01423427, 0.01378903, 0.99980360, -0.00445774, -0.00358090, -0.00413710, 0.00000000, 0.00000000, 0.00000000, -0.86973480, 0.49341989, -0.00959286, 0.00248491
424170065.731467, -0.01670837, 0.00967407, 0.99688721, 0.01291340, -0.00722409, -0.02442758, -171.10420227, 140.30543518, 190.38035583, -0.01410668, 0.01382314, 0.99980491, -0.00000770, -0.00175344, -0.00540492, 0.00000000, 0.00000000, 0.00000000, -0.86976093, 0.49337450, -0.00954564, 0.00253172
424170065.747459, -0.01486206, 0.01257324, 0.99316406, 0.01303617, 0.00216435, -0.01612251, -170.59088135, 139.10769653, 190.54678345, -0.01404507, 0.01374730, 0.99980688, -0.00255649, 0.00058070, -0.00388095, 0.00000000, 0.00000000, 0.00000000, -0.86978150, 0.49333921, -0.00950003, 0.00251432
424170065.763071, -0.01828003, 0.01289368, 0.99394226, 0.01063054, -0.00133185, -0.01736967, -169.39315796, 137.90997314, 188.05053711, -0.01399256, 0.01375562, 0.99980748, -0.00086950, -0.00118238, -0.00664341, 0.00000000, 0.00000000, 0.00000000, -0.86977539, 0.49335030, -0.00947927, 0.00253078
424170065.779771, -0.01901245, 0.01266479, 0.99317932, 0.01764557, -0.00489356, -0.02084776, -169.22206116, 137.73886108, 188.21694946, -0.01406234, 0.01374292, 0.99980670, -0.00421769, -0.00084925, -0.00586441, 0.00000000, 0.00000000, 0.00000000, -0.86979807, 0.49330990, -0.00950638, 0.00250848
424170065.794545, -0.01901245, 0.01266479, 0.99317932, 0.01534886, -0.00137872, -0.02081287, -170.76199341, 138.59439087, 190.71319580, -0.01408171, 0.01372123, 0.99980670, -0.00493074, -0.00105644, -0.00662738, 0.00000000, 0.00000000, 0.00000000, -0.86978300, 0.49333648, -0.00950953, 0.00249398
424170065.810225, -0.01860046, 0.01582336, 0.99819946, 0.01288784, -0.00957992, -0.02795893, -170.59088135, 140.13432312, 190.54678345, -0.01400535, 0.01375673, 0.99980730, -0.00058205, -0.00216005, -0.00790970, 0.00000000, 0.00000000, 0.00000000, -0.86978906, 0.49332610, -0.00948504, 0.00252837
424170065.826348, -0.01557922, 0.01257324, 0.99716187, 0.01766342, -0.00252335, -0.01498827, -171.61750793, 141.16094971, 190.54678345, -0.01393333, 0.01388342, 0.99980652, -0.00123391, 0.00114648, -0.00438417, 0.00000000, 0.00000000, 0.00000000, -0.86982098, 0.49326944, -0.00948480, 0.00260186
424170065.841935, -0.01824951, 0.01142883, 0.99342346, 0.01997051, -0.00845767, -0.02903005, -171.61750793, 141.16094971, 190.54678345, -0.01378208, 0.01392425, 0.99980807, -0.00179714, -0.00135101, -0.00264620, 0.00000000, 0.00000000, 0.00000000, -0.86982778, 0.49325822, -0.00942905, 0.00265704
424170065.857678, -0.01727295, 0.01188660, 0.99493408, 0.00715192, -0.00020267, -0.02669792, -171.78862000, 141.33206177, 190.04753113, -0.01381974, 0.01394889, 0.99980718, -0.00442978, -0.00252005, -0.00638374, 0.00000000, 0.00000000, 0.00000000, -0.86984938, 0.49321969, -0.00945139, 0.00265889
424170065.873519, -0.01727295, 0.01188660, 0.99493408, 0.00949417, -0.00139683, -0.02902153, -170.07757568, 138.93659973, 190.04753113, -0.01380736, 0.01384562, 0.99980879, -0.00346559, -0.00195903, -0.00487473, 0.00000000, 0.00000000, 0.00000000, -0.86988953, 0.49314968, -0.00942032, 0.00261779
424170065.890295, -0.01831055, 0.01388550, 0.99519348, 0.01063054, -0.00133185, -0.01736967, -168.36653137, 138.59439087, 189.71469116, -0.01372746, 0.01380810, 0.99981046, -0.00229427, -0.00193676, -0.00389978, 0.00000000, 0.00000000, 0.00000000, -0.86992178, 0.49309361, -0.00937614, 0.00262177
424170065.905009, -0.01531982, 0.01210022, 0.99441528, 0.01764557, -0.00489356, -0.02084776, -170.41978455, 138.25218201, 188.38336182, -0.01385179, 0.01373013, 0.99980980, -0.00415358, -0.00132473, -0.00338034, 0.00000000, 0.00000000, 0.00000000, -0.86990933, 0.49311525, -0.00941107, 0.00255696
424170065.921142, -0.01673889, 0.01065063, 0.99688721, 0.01641652, -0.00839588, -0.02208293, -170.24867249, 137.39665222, 188.88261414, -0.01377080, 0.01382881, 0.99980956, -0.00154902, -0.00172859, -0.00539426, 0.00000000, 0.00000000, 0.00000000, -0.86991073, 0.49311265, -0.00940016, 0.00261988
424170065.936585, -0.01702881, 0.01092529, 0.99090576, 0.00828643, -0.00253666, -0.02556155, -169.90646362, 137.73886108, 189.88111877, -0.01364991, 0.01385582, 0.99981081, -0.00308898, -0.00320519, -0.00292362, 0.00000000, 0.00000000, 0.00000000, -0.86993567, 0.49306931, -0.00935410, 0.00266191
424170065.954460, -0.01635742, 0.01408386, 0.99342346, 0.01764451, -0.00369034, -0.01500798, -170.93309021, 140.13432312, 191.54527283, -0.01366215, 0.01380582, 0.99981135, -0.00336666, -0.00288053, -0.00890559, 0.00000000, 0.00000000, 0.00000000, -0.86995880, 0.49302877, -0.00934697, 0.00263758
424170065.968329, -0.01635742, 0.01408386, 0.99342346, 0.01410224, -0.00725179, -0.02790727, -170.24867249, 139.79211426, 190.87960815, -0.01365854, 0.01386066, 0.99981064, -0.00362967, -0.00145526, -0.00737900, 0.00000000, 0.00000000, 0.00000000, -0.86996142, 0.49302378, -0.00935890, 0.00266238
424170065.983689, -0.01893616, 0.01022339, 0.99465942, 0.01882402, -0.00250097, -0.01032028, -172.13082886, 139.62101746, 190.38035583, -0.01365233, 0.01392531, 0.99980986, -0.00662660, -0.00025344, -0.00785121, 0.00000000, 0.00000000, 0.00000000, -0.86998437, 0.49298287, -0.00937202, 0.00269248
424170066.000476, -0.01850891, 0.01287842, 0.99717712, 0.01416802, -0.00496733, -0.03601579, -170.93309021, 139.44990540, 189.88111877, -0.01371174, 0.01388841, 0.99980950, -0.00522442, -0.00366503, -0.00515011, 0.00000000, 0.00000000, 0.00000000, -0.86997040, 0.49300738, -0.00938884, 0.00266151
424170066.017826, -0.01628113, 0.01089478, 0.99464417, 0.00829442, -0.00255104, -0.02788942, -170.93309021, 139.44990540, 189.88111877, -0.01365419, 0.01395092, 0.99980944, -0.00485472, -0.00107250, -0.00263233, 0.00000000, 0.00000000, 0.00000000, -0.86999817, 0.49295832, -0.00937906, 0.00270342
424170066.031033, -0.01628113, 0.01089478, 0.99464417, 0.01177623, -0.00248420, -0.01388519, -169.56427002, 138.42327881, 188.21694946, -0.01364011, 0.01387293, 0.99981076, -0.00264102, -0.00297815, -0.00516656, 0.00000000, 0.00000000, 0.00000000, -0.87002319, 0.49291482, -0.00935358, 0.00267343
424170066.047665, -0.01655579, 0.01211548, 0.99491882, 0.01302818, 0.00217873, -0.01379464, -170.07757568, 137.90997314, 188.05053711, -0.01366584, 0.01382867, 0.99981099, -0.00096734, -0.00076715, -0.00516682, 0.00000000, 0.00000000, 0.00000000, -0.86999083, 0.49297205, -0.00935404, 0.00264722
424170066.063308, -0.01516724, 0.01551819, 0.99644470, 0.01296374, -0.00130894, -0.01152563, -169.73536682, 137.56776428, 189.04902649, -0.01365658, 0.01389852, 0.99981016, -0.00369266, 0.00044474, -0.00585263, 0.00000000, 0.00000000, 0.00000000, -0.87000137, 0.49295303, -0.00936717, 0.00268009
424170066.080522, -0.01873779, 0.01118469, 0.99516296, 0.00359500, -0.00133664, -0.02442625, -170.41978455, 140.30543518, 189.38186646, -0.01362129, 0.01394026, 0.99981004, -0.00240044, -0.00351851, -0.00890428, 0.00000000, 0.00000000, 0.00000000, -0.86997716, 0.49299570, -0.00936224, 0.00270649
424170066.094661, -0.01852417, 0.01266479, 0.99192810, 0.01646739, -0.00728588, -0.03137497, -170.59088135, 139.44990540, 189.88111877, -0.01360453, 0.01383670, 0.99981171, -0.00513327, -0.00265201, -0.00464875, 0.00000000, 0.00000000, 0.00000000, -0.86997315, 0.49300362, -0.00932944, 0.00266549
424170066.110840, -0.01606750, 0.01286316, 0.99118042, 0.01651906, -0.00257421, -0.02431226, -170.76199341, 140.30543518, 190.38035583, -0.01357667, 0.01384029, 0.99981207, -0.00494750, -0.00117550, -0.00788394, 0.00000000, 0.00000000, 0.00000000, -0.87000845, 0.49294150, -0.00931801, 0.00267458
424170066.125960, -0.01606750, 0.01286316, 0.99118042, 0.01175439, -0.00484722, -0.01858061, -172.13082886, 139.96322632, 189.04902649, -0.01349750, 0.01390885, 0.99981219, -0.00398907, -0.00275467, -0.00313858, 0.00000000, 0.00000000, 0.00000000, -0.87002381, 0.49291444, -0.00930038, 0.00272421
424170066.141981, -0.02015686, 0.00975037, 0.99542236, 0.01412381, -0.00488876, -0.02321211, -170.07757568, 136.88334656, 189.04902649, -0.01344355, 0.01396719, 0.99981207, -0.00169317, 0.00010141, -0.00788398, 0.00000000, 0.00000000, 0.00000000, -0.87002388, 0.49291427, -0.00929129, 0.00276290
424170066.158188, -0.01654053, 0.01164246, 0.99191284, 0.01525725, -0.00601928, -0.01623570, -170.07757568, 136.88334656, 189.04902649, -0.01347962, 0.01388546, 0.99981272, -0.00350341, -0.00321956, -0.00416148, 0.00000000, 0.00000000, 0.00000000, -0.87004264, 0.49288150, -0.00928674, 0.00271880
424170066.173710, -0.01882935, 0.01486206, 0.99644470, 0.01768872, -0.00376891, -0.02781166, -168.87985229, 138.76548767, 188.21694946, -0.01338029, 0.01393193, 0.99981344, -0.00316024, -0.00228948, -0.00790058, 0.00000000, 0.00000000, 0.00000000, -0.87005357, 0.49286255, -0.00925491, 0.00276370
424170066.190812, -0.01698303, 0.00991821, 0.99414062, 0.01175146, -0.00604298, -0.02325605, -168.02432251, 137.90997314, 189.04902649, -0.01343185, 0.01397656, 0.99981213, -0.00539750, 0.00088550, -0.00336740, 0.00000000, 0.00000000, 0.00000000, -0.87007033, 0.49283230, -0.00928825, 0.00277073
424170066.205357, -0.01698303, 0.00991821, 0.99414062, 0.01763998, -0.00728534, -0.03019865, -169.22206116, 138.76548767, 189.21545410, -0.01336914, 0.01393380, 0.99981356, -0.00315612, -0.00279488, -0.00642060, 0.00000000, 0.00000000, 0.00000000, -0.87007374, 0.49282700, -0.00925041, 0.00276764
424170066.221620, -0.01609802, 0.01383972, 0.99493408, 0.01064252, -0.00135315, -0.02086161, -169.73536682, 138.93659973, 189.71469116, -0.01333988, 0.01395493, 0.99981362, -0.00225461, -0.00136643, -0.00465067, 0.00000000, 0.00000000, 0.00000000, -0.87009663, 0.49278665, -0.00924275, 0.00278447
424170066.236990, -0.01704407, 0.01284790, 0.99690247, 0.01651932, 0.00102771, -0.00795806, -171.27529907, 138.76548767, 188.88261414, -0.01327990, 0.01398005, 0.99981409, -0.00200941, -0.00310053, -0.00567346, 0.00000000, 0.00000000, 0.00000000, -0.87010902, 0.49276498, -0.00922278, 0.00281041
424170066.253142, -0.01902771, 0.01341248, 0.99543762, 0.01521278, -0.00954264, -0.01978675, -172.64413452, 140.13432312, 191.21244812, -0.01327544, 0.01405226, 0.99981314, -0.00376863, -0.00120436, -0.00291067, 0.00000000, 0.00000000, 0.00000000, -0.87009189, 0.49279475, -0.00923873, 0.00284261
424170066.268495, -0.01730347, 0.01261902, 0.99417114, 0.01066676, -0.00139603, -0.02784521, -172.64413452, 140.13432312, 190.21394348, -0.01334942, 0.01403488, 0.99981236, -0.00567829, -0.00062240, -0.00437477, 0.00000000, 0.00000000, 0.00000000, -0.87005404, 0.49286120, -0.00926685, 0.00281611
424170066.283882, -0.01730347, 0.01261902, 0.99417114, 0.01057222, -0.00723261, -0.02794375, -171.61750793, 141.84536743, 190.54678345, -0.01327233, 0.01401427, 0.99981368, -0.00178810, -0.00289061, -0.00765672, 0.00000000, 0.00000000, 0.00000000, -0.87009057, 0.49279737, -0.00922802, 0.00282682
424170066.300270, -0.01506042, 0.01110840, 0.99464417, 0.00951334, 0.00337209, -0.01264735, -171.78862000, 138.59439087, 189.71469116, -0.01325984, 0.01397652, 0.99981439, -0.00405888, 0.00010734, -0.00163020, 0.00000000, 0.00000000, 0.00000000, -0.87012131, 0.49274345, -0.00921311, 0.00281405
424170066.316079, -0.01904297, 0.01390076, 0.99543762, 0.00834635, 0.00576255, -0.00447278, -171.78862000, 138.59439087, 189.71469116, -0.01329606, 0.01389818, 0.99981499, -0.00208479, 0.00064345, -0.00639155, 0.00000000, 0.00000000, 0.00000000, -0.87010593, 0.49277091, -0.00920965, 0.00277074
424170066.331706, -0.01696777, 0.00944519, 0.99412537, 0.01537336, 0.00218006, -0.01144227, -169.39315796, 137.90997314, 190.04753113, -0.01340920, 0.01386773, 0.99981391, -0.00563377, 0.00003303, -0.00437630, 0.00000000, 0.00000000, 0.00000000, -0.87007929, 0.49281740, -0.00925153, 0.00272912
424170066.347772, -0.01988220, 0.00900269, 0.99366760, 0.00828962, 0.00226102, -0.00453190, -168.53764343, 137.39665222, 187.55128479, -0.01351821, 0.01382713, 0.99981302, -0.00344957, -0.00438194, -0.00568765, 0.00000000, 0.00000000, 0.00000000, -0.87007879, 0.49281782, -0.00928895, 0.00268459
424170066.363597, -0.01988220, 0.00900269, 0.99366760, 0.02117160, -0.00490528, -0.01964720, -168.53764343, 138.08106995, 189.88111877, -0.01357965, 0.01383450, 0.99981207, -0.00474616, 0.00076816, -0.00637336, 0.00000000, 0.00000000, 0.00000000, -0.87003873, 0.49288807, -0.00931772, 0.00267190
424170066.380325, -0.01678467, 0.01211548, 0.99766541, 0.01763199, -0.00727096, -0.02787078, -170.59088135, 138.76548767, 189.88111877, -0.01357767, 0.01378376, 0.99981278, -0.00023154, -0.00394184, -0.00468036, 0.00000000, 0.00000000, 0.00000000, -0.87004511, 0.49287718, -0.00930431, 0.00265043
424170066.394980, -0.01487732, 0.01405334, 0.99642944, 0.01294829, -0.00608506, -0.02906388, -171.10420227, 139.62101746, 189.04902649, -0.01352421, 0.01385115, 0.99981260, -0.00280269, -0.00124739, -0.00664854, 0.00000000, 0.00000000, 0.00000000, -0.87007551, 0.49282340, -0.00929750, 0.00269350
424170066.410683, -0.01652527, 0.01138306, 0.99566650, 0.01650467, -0.00014647, -0.00914157, -172.47303772, 140.64764404, 189.71469116, -0.01344415, 0.01385763, 0.99981362, -0.00143317, 0.00019571, -0.00338415, 0.00000000, 0.00000000, 0.00000000, -0.87008764, 0.49280248, -0.00926420, 0.00271628
424170066.426595, -0.01899719, 0.01217651, 0.99542236, 0.01304017, 0.00215716, -0.01728658, -171.61750793, 141.16094971, 190.21394348, -0.01354272, 0.01382059, 0.99981278, -0.00298254, -0.00243753, -0.00414627, 0.00000000, 0.00000000, 0.00000000, -0.87007979, 0.49281594, -0.00929800, 0.00267572
424170066.442125, -0.01899719, 0.01217651, 0.99542236, 0.02001951, -0.00133984, -0.01028832, -170.24867249, 138.76548767, 190.54678345, -0.01357058, 0.01383292, 0.99981225, -0.00542661, -0.00165640, -0.00438986, 0.00000000, 0.00000000, 0.00000000, -0.87007824, 0.49281840, -0.00931317, 0.00267420
424170066.458381, -0.01666260, 0.01579285, 0.99343872, 0.00940016, -0.00363122, -0.01276533, -170.41978455, 139.27880859, 187.38487244, -0.01357925, 0.01399278, 0.99980986, -0.00282395, 0.00129653, -0.00486054, 0.00000000, 0.00000000, 0.00000000, -0.87003627, 0.49289130, -0.00935657, 0.00274083
424170066.473901, -0.01655579, 0.01237488, 0.99415588, 0.00597347, 0.00100641, -0.02087119, -170.41978455, 139.27880859, 187.38487244, -0.01360602, 0.01401968, 0.99980915, -0.00444513, -0.00088186, -0.00487506, 0.00000000, 0.00000000, 0.00000000, -0.87002545, 0.49291003, -0.00937491, 0.00274573
424170066.490723, -0.01948547, 0.01193237, 0.99467468, 0.01296081, -0.00250497, -0.01620107, -170.07757568, 137.56776428, 189.71469116, -0.01358878, 0.01396675, 0.99981010, -0.00296700, -0.00159188, -0.00565424, 0.00000000, 0.00000000, 0.00000000, -0.87002988, 0.49290269, -0.00935434, 0.00272703
424170066.505467, -0.01628113, 0.01091003, 0.99116516, 0.02466114, -0.00845474, -0.02432558, -169.22206116, 137.73886108, 188.21694946, -0.01361816, 0.01395338, 0.99980992, -0.00586732, -0.00202101, -0.00513522, 0.00000000, 0.00000000, 0.00000000, -0.87000732, 0.49294240, -0.00936395, 0.00271355
424170066.521920, -0.01628113, 0.01091003, 0.99116516, 0.01408200, -0.00721610, -0.02208746, -170.24867249, 138.76548767, 189.21545410, -0.01356874, 0.01404093, 0.99980932, -0.00271238, -0.00313089, -0.00864419, 0.00000000, 0.00000000, 0.00000000, -0.87001190, 0.49293404, -0.00936400, 0.00276390
424170066.537251, -0.01751709, 0.01190186, 0.99467468, 0.00707682, -0.00127006, -0.01042228, -170.59088135, 139.10769653, 190.21394348, -0.01349923, 0.01411696, 0.99980921, -0.00359061, -0.00052138, -0.00586696, 0.00000000, 0.00000000, 0.00000000, -0.87003750, 0.49288879, -0.00935236, 0.00281460
424170066.553525, -0.01824951, 0.01191711, 0.99493408, 0.01650814, -0.00375532, -0.02665984, -171.78862000, 139.62101746, 190.71319580, -0.01344690, 0.01404483, 0.99981093, -0.00019446, -0.00099857, -0.00589920, 0.00000000, 0.00000000, 0.00000000, -0.87003797, 0.49288884, -0.00931181, 0.00279612
424170066.568941, -0.01823425, 0.01118469, 0.99291992, 0.01295335, -0.00729546, -0.03606746, -172.64413452, 140.47653198, 190.21394348, -0.01339135, 0.01405745, 0.99981153, -0.00485816, -0.00214034, -0.00487743, 0.00000000, 0.00000000, 0.00000000, -0.87004120, 0.49288342, -0.00929073, 0.00281536
424170066.583920, -0.01553345, 0.01086426, 0.99739075, 0.01885332, -0.00375373, -0.02430747, -170.41978455, 140.30543518, 190.04753113, -0.01340790, 0.01402126, 0.99981183, -0.00482635, -0.00283657, -0.00689188, 0.00000000, 0.00000000, 0.00000000, -0.87010055, 0.49277879, -0.00928868, 0.00279665
424170066.601308, -0.01927185, 0.01341248, 0.99494934, 0.00592394, -0.00130655, -0.01741841, -170.93309021, 139.44990540, 189.88111877, -0.01333444, 0.01400443, 0.99981302, -0.00219900, -0.00314017, -0.00242227, 0.00000000, 0.00000000, 0.00000000, -0.87014497, 0.49270096, -0.00925231, 0.00280826
424170066.616412, -0.01927185, 0.01341248, 0.99494934, 0.01648230, -0.00611142, -0.03019119, -168.53764343, 138.08106995, 189.54827881, -0.01329142, 0.01397232, 0.99981403, -0.00302022, -0.00185684, -0.00440693, 0.00000000, 0.00000000, 0.00000000, -0.87013444, 0.49272007, -0.00922574, 0.00280468
424170066.632039, -0.01789856, 0.01582336, 0.99345398, 0.00834342, 0.00456705, -0.00914822, -168.53764343, 138.08106995, 189.54827881, -0.01327385, 0.01406802, 0.99981290, -0.00264107, 0.00120602, -0.00486359, 0.00000000, 0.00000000, 0.00000000, -0.87015105, 0.49269019, -0.00924158, 0.00285097
424170066.648141, -0.01655579, 0.01284790, 0.99566650, 0.01056689, -0.00602221, -0.02094044, -169.56427002, 139.10769653, 189.21545410, -0.01332536, 0.01408528, 0.99981201, -0.00457320, 0.00173808, -0.00635802, 0.00000000, 0.00000000, 0.00000000, -0.87012149, 0.49274191, -0.00926842, 0.00284524
424170066.663480, -0.02047729, 0.01246643, 0.99468994, 0.01286893, -0.01074692, -0.02797864, -169.05094910, 139.27880859, 190.38035583, -0.01331914, 0.01406074, 0.99981242, -0.00323665, -0.00121284, -0.00414593, 0.00000000, 0.00000000, 0.00000000, -0.87013073, 0.49272581, -0.00925961, 0.00283626
424170066.681028, -0.01660156, 0.01359558, 0.99192810, 0.00831199, -0.00018056, -0.02203020, -169.22206116, 138.42327881, 190.54678345, -0.01335572, 0.01409466, 0.99981147, -0.00712157, -0.00162823, -0.00512152, 0.00000000, 0.00000000, 0.00000000, -0.87014764, 0.49269547, -0.00928379, 0.00284233
424170066.695634, -0.01660156, 0.01359558, 0.99192810, 0.01530439, -0.00490235, -0.02436366, -172.47303772, 139.27880859, 190.38035583, -0.01326807, 0.01412459, 0.99981219, -0.00330297, -0.00101729, -0.00339802, 0.00000000, 0.00000000, 0.00000000, -0.87016591, 0.49266357, -0.00925292, 0.00287729
424170066.710858, -0.01849365, 0.01191711, 0.99417114, 0.01646499, -0.00487998, -0.01969594, -172.98634338, 140.47653198, 190.21394348, -0.01330033, 0.01406413, 0.99981266, -0.00565109, -0.00312358, -0.00291017, 0.00000000, 0.00000000, 0.00000000, -0.87017066, 0.49265540, -0.00925203, 0.00284312
424170066.727134, -0.01776123, 0.01092529, 0.99516296, 0.01885598, -0.00255797, -0.01963202, -171.27529907, 141.16094971, 190.87960815, -0.01342252, 0.01412615, 0.99981010, -0.00710055, -0.00019488, -0.00635615, 0.00000000, 0.00000000, 0.00000000, -0.87015790, 0.49267665, -0.00932055, 0.00283978
424170066.742528, -0.01950073, 0.01243591, 0.99467468, 0.01062761, -0.00252787, -0.02204511, -170.59088135, 140.13432312, 190.21394348, -0.01339527, 0.01417160, 0.99980986, -0.00436596, -0.00324631, -0.00464688, 0.00000000, 0.00000000, 0.00000000, -0.87015914, 0.49267433, -0.00931989, 0.00286629
424170066.758749, -0.01509094, 0.01235962, 0.99241638, 0.01534620, -0.00257474, -0.02548832, -168.87985229, 138.42327881, 189.54827881, -0.01339254, 0.01417598, 0.99980980, -0.00610819, -0.00174007, -0.00513514, 0.00000000, 0.00000000, 0.00000000, -0.87018053, 0.49263653, -0.00931965, 0.00286928
424170066.774137, -0.01509094, 0.01235962, 0.99241638, 0.01762746, -0.01086516, -0.04306145, -168.87985229, 138.42327881, 189.54827881, -0.01330334, 0.01413583, 0.99981159, -0.00200123, -0.00227976, -0.00640338, 0.00000000, 0.00000000, 0.00000000, -0.87020500, 0.49259420, -0.00927080, 0.00287423
424170066.790723, -0.01628113, 0.01089478, 0.99539185, 0.01652172, -0.00137792, -0.01963682, -169.73536682, 137.56776428, 190.38035583, -0.01314472, 0.01420918, 0.99981266, -0.00150372, 0.00007305, -0.00339846, 0.00000000, 0.00000000, 0.00000000, -0.87027507, 0.49247093, -0.00921943, 0.00294653
424170066.805784, -0.01533508, 0.01283264, 0.99465942, 0.01066276, -0.00138884, -0.02668115, -169.73536682, 137.22555542, 188.38336182, -0.01317519, 0.01419284, 0.99981248, -0.00460130, -0.00253513, -0.00487839, 0.00000000, 0.00000000, 0.00000000, -0.87029614, 0.49243362, -0.00922854, 0.00293231
424170066.821938, -0.01562500, 0.01406860, 0.99542236, 0.01071789, 0.00331564, -0.02078304, -171.10420227, 139.27880859, 191.37886047, -0.01304014, 0.01425294, 0.99981338, -0.00229494, -0.00142030, -0.00515396, 0.00000000, 0.00000000, 0.00000000, -0.87032660, 0.49238025, -0.00918438, 0.00299228
424170066.837627, -0.01611328, 0.01432800, 0.99467468, 0.01413073, -0.00369966, -0.01970047, -169.90646362, 139.10769653, 189.21545410, -0.01309536, 0.01423039, 0.99981296, -0.00252964, -0.00016178, -0.00439062, 0.00000000, 0.00000000, 0.00000000, -0.87032878, 0.49237619, -0.00920285, 0.00296891
424170066.853773, -0.01611328, 0.01432800, 0.99467468, 0.01997983, -0.00607307, -0.02084296, -171.44641113, 138.93659973, 190.71319580, -0.01305182, 0.01426557, 0.99981308, -0.00228326, -0.00118879, -0.00265119, 0.00000000, 0.00000000, 0.00000000, -0.87032832, 0.49237704, -0.00919256, 0.00299493
424170066.868985, -0.01759338, 0.01460266, 0.99220276, 0.01772520, -0.00023143, -0.02193273, -172.98634338, 140.47653198, 191.21244812, -0.01299184, 0.01425426, 0.99981397, -0.00328929, -0.00334423, -0.00791641, 0.00000000, 0.00000000, 0.00000000, -0.87033930, 0.49235810, -0.00916361, 0.00300498
424170066.884321, -0.01898193, 0.01193237, 0.99493408, 0.01529400, -0.00248207, -0.01035677, -170.93309021, 138.76548767, 189.21545410, -0.01301185, 0.01435916, 0.99981225, -0.00403222, -0.00222843, -0.00588523, 0.00000000, 0.00000000, 0.00000000, -0.87037353, 0.49229669, -0.00919793, 0.00304636
424170066.900834, -0.01502991, 0.01062012, 0.99613953, 0.01291100, -0.00481792, -0.01274855, -170.24867249, 139.44990540, 190.21394348, -0.01299829, 0.01436803, 0.99981230, -0.00598364, -0.00243566, -0.00487820, 0.00000000, 0.00000000, 0.00000000, -0.87035680, 0.49232630, -0.00919432, 0.00305324
424170066.916776, -0.01756287, 0.01313782, 0.99368286, 0.01656619, 0.00214518, -0.01608603, -168.87985229, 138.08106995, 189.54827881, -0.01291974, 0.01436114, 0.99981338, -0.00211017, -0.00374103, -0.00367388, 0.00000000, 0.00000000, 0.00000000, -0.87035569, 0.49232883, -0.00915844, 0.00306956
424170066.932344, -0.01756287, 0.01313782, 0.99368286, 0.01998516, -0.00728348, -0.02784628, -168.87985229, 138.08106995, 189.54827881, -0.01291438, 0.01437396, 0.99981326, -0.00489263, -0.00149554, -0.00687811, 0.00000000, 0.00000000, 0.00000000, -0.87035231, 0.49233475, -0.00915928, 0.00307639
424170066.948252, -0.01657104, 0.01284790, 0.99491882, 0.01412674, -0.00369247, -0.01853667, -169.05094910, 137.90997314, 189.38186646, -0.01303185, 0.01437105, 0.99981183, -0.00665199, -0.00364412, -0.00638834, 0.00000000, 0.00000000, 0.00000000, -0.87034121, 0.49235361, -0.00920976, 0.00304601
424170066.963682, -0.01583862, 0.01283264, 0.99266052, 0.01536937, 0.00218725, -0.01027820, -168.87985229, 138.76548767, 189.54827881, -0.01294706, 0.01438238, 0.99981272, -0.00359347, -0.00251104, -0.00464978, 0.00000000, 0.00000000, 0.00000000, -0.87038563, 0.49227556, -0.00917537, 0.00307263
424170066.980394, -0.01712036, 0.01507568, 0.99317932, 0.01411875, -0.00367836, -0.01620853, -170.76199341, 139.96322632, 191.37886047, -0.01289671, 0.01446729, 0.99981219, -0.00294191, -0.00163465, -0.00715165, 0.00000000, 0.00000000, 0.00000000, -0.87038507, 0.49227627, -0.00917437, 0.00312198
424170066.995563, -0.01727295, 0.01239014, 0.99568176, 0.01409824, -0.00724460, -0.02674320, -172.13082886, 140.64764404, 191.04602051, -0.01294229, 0.01439350, 0.99981266, -0.00417807, 0.00068218, -0.00663332, 0.00000000, 0.00000000, 0.00000000, -0.87037567, 0.49229313, -0.00917610, 0.00307846
424170067.011054, -0.01727295, 0.01239014, 0.99568176, 0.01057781, -0.00484083, -0.01859286, -172.47303772, 139.27880859, 190.71319580, -0.01294445, 0.01441891, 0.99981225, -0.00432850, -0.00202878, -0.00413049, 0.00000000, 0.00000000, 0.00000000, -0.87039814, 0.49225320, -0.00918315, 0.00308941
